"","participant_id","age","raceNew_numeric","ethnicity_numeric","sex_numeric","education_numeric","covid","version","StudyTimeCoded","ChoiceUrgencyCoded","ProbOfChangeCoded","ProbeTypeCoded","day","mean_RT_sec","variance_RT_sec","total_accuracy","nTrials","version_numeric"
"1",4000,36,1,1,1,8,0,"SP_ST+_RT+_PC+",1,0,1,1,7,1.07323333333333,0.100501266666667,56,60,1
"2",4000,36,1,1,1,8,0,"SP_ST+_RT+_PC-",1,0,0,1,1,1.57053333333333,0.294121100564972,51,60,1
"3",4000,36,1,1,1,8,0,"SP_ST+_RT-_PC+",1,1,1,1,6,1.10921666666667,0.0907754268361582,53,60,1
"4",4000,36,1,1,1,8,0,"SP_ST+_RT-_PC-",1,1,0,1,3,1.14178333333333,0.136799596327684,51,60,1
"5",4000,36,1,1,1,8,0,"SP_ST-_RT+_PC+",0,0,1,1,4,1.08096666666667,0.0656435242937853,55,60,1
"6",4000,36,1,1,1,8,0,"SP_ST-_RT+_PC-",0,0,0,1,8,1.00691666666667,0.06375977259887,55,60,1
"7",4000,36,1,1,1,8,0,"SP_ST-_RT-_PC+",0,1,1,1,2,1.21708333333333,0.089210959039548,52,60,1
"8",4000,36,1,1,1,8,0,"SP_ST-_RT-_PC-",0,1,0,1,5,1.04758333333333,0.0671941793785311,45,60,1
"9",4000,36,1,1,1,8,0,"WD_ST+_RT+_PC+",1,0,1,0,2,1.47213333333333,0.351555168361582,56,60,1
"10",4000,36,1,1,1,8,0,"WD_ST+_RT+_PC-",1,0,0,0,3,1.12425,0.0821795127118644,60,60,1
"11",4000,36,1,1,1,8,0,"WD_ST+_RT-_PC+",1,1,1,0,4,1.01088333333333,0.0870070200564972,59,60,1
"12",4000,36,1,1,1,8,0,"WD_ST+_RT-_PC-",1,1,0,0,5,0.885533333333333,0.0488281853107345,60,60,1
"13",4000,36,1,1,1,8,0,"WD_ST-_RT+_PC+",0,0,1,0,6,0.86325,0.0228899194915254,60,60,1
"14",4000,36,1,1,1,8,0,"WD_ST-_RT+_PC-",0,0,0,0,8,0.889183333333333,0.0753552709039548,58,60,1
"15",4000,36,1,1,1,8,0,"WD_ST-_RT-_PC+",0,1,1,0,7,0.8309,0.0134997525423729,60,60,1
"16",4000,36,1,1,1,8,0,"WD_ST-_RT-_PC-",0,1,0,0,1,1.05271666666667,0.0407101725988701,54,60,1
"17",4001,30,1,1,1,8,0,"SP_ST+_RT+_PC+",1,0,1,1,7,0.91175,0.0748151059322034,58,60,1
"18",4001,30,1,1,1,8,0,"SP_ST+_RT+_PC-",1,0,0,1,1,1.37133333333333,0.322308259887006,55,60,1
"19",4001,30,1,1,1,8,0,"SP_ST+_RT-_PC+",1,1,1,1,6,1.06198333333333,0.123119948870056,57,60,1
"20",4001,30,1,1,1,8,0,"SP_ST-_RT+_PC+",0,0,1,1,4,0.945766666666667,0.0961095039548023,55,60,1
"21",4001,30,1,1,1,8,0,"SP_ST-_RT+_PC-",0,0,0,1,8,0.930033333333333,0.0592541344632768,57,60,1
"22",4001,30,1,1,1,8,0,"SP_ST-_RT-_PC+",0,1,1,1,2,1.25033898305085,0.22542595207481,51,59,1
"23",4001,30,1,1,1,8,0,"WD_ST+_RT+_PC+",1,0,1,0,2,1.28515,0.168332977118644,58,60,1
"24",4001,30,1,1,1,8,0,"WD_ST+_RT-_PC+",1,1,1,0,4,1.05016666666667,0.0734928192090396,58,60,1
"25",4001,30,1,1,1,8,0,"WD_ST-_RT+_PC+",0,0,1,0,6,0.961016666666667,0.0396700844632768,57,60,1
"26",4001,30,1,1,1,8,0,"WD_ST-_RT+_PC-",0,0,0,0,8,1.13218333333333,0.259141677683616,58,60,1
"27",4001,30,1,1,1,8,0,"WD_ST-_RT-_PC+",0,1,1,0,7,0.892716666666667,0.0498623420903955,60,60,1
"28",4001,30,1,1,1,8,0,"WD_ST-_RT-_PC-",0,1,0,0,1,1.26805172413793,0.154226084996975,54,58,1
"29",4002,52,1,1,1,8,1,"SP_ST+_RT+_PC+",1,0,1,1,7,1.46863333333333,0.193393253107345,39,60,1
"30",4002,52,1,1,1,8,1,"SP_ST+_RT+_PC-",1,0,0,1,1,1.97461666666667,0.673152918361582,45,60,1
"31",4002,52,1,1,1,8,1,"SP_ST+_RT-_PC+",1,1,1,1,6,1.08213559322034,0.116649291642314,45,59,1
"32",4002,52,1,1,1,8,1,"SP_ST-_RT+_PC+",0,0,1,1,4,1.64216949152542,0.428271384570427,34,59,1
"33",4002,52,1,1,1,8,1,"SP_ST-_RT+_PC-",0,0,0,1,8,1.28381666666667,0.0999871353107345,41,60,1
"34",4002,52,1,1,1,8,1,"SP_ST-_RT-_PC+",0,1,1,1,2,1.48785964912281,0.128600908521303,35,57,1
"35",4002,52,1,1,1,8,1,"SP_ST-_RT-_PC-",0,1,0,1,5,1.06930508474576,0.152249560490941,43,59,1
"36",4002,52,1,1,1,8,1,"WD_ST+_RT+_PC+",1,0,1,0,2,1.83366666666667,0.442563683615819,55,60,1
"37",4002,52,1,1,1,8,1,"WD_ST+_RT-_PC+",1,1,1,0,4,1.29558620689655,0.2646370538415,51,58,1
"38",4002,52,1,1,1,8,1,"WD_ST+_RT-_PC-",1,1,0,0,5,1.26266101694915,0.204267676212741,58,59,1
"39",4002,52,1,1,1,8,1,"WD_ST-_RT+_PC+",0,0,1,0,6,1.25313333333333,1.05730842259887,50,60,1
"40",4002,52,1,1,1,8,1,"WD_ST-_RT+_PC-",0,0,0,0,8,1.60933333333333,0.100099209039548,57,60,1
"41",4002,52,1,1,1,8,1,"WD_ST-_RT-_PC+",0,1,1,0,7,1.46961016949153,0.116955724722385,57,59,1
"42",4002,52,1,1,1,8,1,"WD_ST-_RT-_PC-",0,1,0,0,1,1.73272881355932,0.212263201052016,54,59,1
"43",4003,80,1,1,1,8,0,"SP_ST+_RT+_PC+",1,0,1,1,4,1.95063333333333,0.57525135480226,33,60,1
"44",4003,80,1,1,1,8,0,"SP_ST+_RT+_PC-",1,0,0,1,2,1.81171666666667,0.49897217259887,39,60,1
"45",4003,80,1,1,1,8,0,"SP_ST+_RT-_PC+",1,1,1,1,5,1.67567796610169,0.330504222092344,37,59,1
"46",4003,80,1,1,1,8,0,"SP_ST+_RT-_PC-",1,1,0,1,7,1.47158333333333,0.296109060734463,40,60,1
"47",4003,80,1,1,1,8,0,"SP_ST-_RT+_PC+",0,0,1,1,3,1.45671666666667,0.158210681073446,34,60,1
"48",4003,80,1,1,1,8,0,"SP_ST-_RT+_PC-",0,0,0,1,1,1.52321666666667,0.215463155649718,34,60,1
"49",4003,80,1,1,1,8,0,"SP_ST-_RT-_PC+",0,1,1,1,6,1.44136666666667,0.287656236158192,36,60,1
"50",4003,80,1,1,1,8,0,"SP_ST-_RT-_PC-",0,1,0,1,8,1.64943859649123,0.272195464912281,44,57,1
"51",4003,80,1,1,1,8,0,"WD_ST+_RT+_PC+",1,0,1,0,6,1.48795,0.437843166949153,49,60,1
"52",4003,80,1,1,1,8,0,"WD_ST+_RT+_PC-",1,0,0,0,2,1.74333333333333,0.361677310734463,40,60,1
"53",4003,80,1,1,1,8,0,"WD_ST+_RT-_PC+",1,1,1,0,3,1.48657894736842,0.303226712406015,50,57,1
"54",4003,80,1,1,1,8,0,"WD_ST+_RT-_PC-",1,1,0,0,1,1.61177966101695,0.233817243717124,43,59,1
"55",4003,80,1,1,1,8,0,"WD_ST-_RT+_PC+",0,0,1,0,4,1.0639,0.142615752542373,55,60,1
"56",4003,80,1,1,1,8,0,"WD_ST-_RT+_PC-",0,0,0,0,7,0.90995,0.021852963559322,59,60,1
"57",4003,80,1,1,1,8,0,"WD_ST-_RT-_PC+",0,1,1,0,5,0.980766666666667,0.0702481480225988,59,60,1
"58",4003,80,1,1,1,8,0,"WD_ST-_RT-_PC-",0,1,0,0,8,1.32316071428571,0.198413337337662,46,56,1
"59",4004,70,1,1,1,8,0,"SP_ST+_RT+_PC+",1,0,1,1,4,1.76796666666667,0.594839863276836,40,60,1
"60",4004,70,1,1,1,8,0,"SP_ST+_RT+_PC-",1,0,0,1,2,1.82603333333333,0.578806541242938,49,60,1
"61",4004,70,1,1,1,8,0,"SP_ST+_RT-_PC+",1,1,1,1,5,1.3068275862069,0.317727022383545,52,58,1
"62",4004,70,1,1,1,8,0,"SP_ST+_RT-_PC-",1,1,0,1,7,1.14376271186441,0.123309459964933,54,59,1
"63",4004,70,1,1,1,8,0,"SP_ST-_RT+_PC+",0,0,1,1,3,1.43893333333333,0.383195724293785,48,60,1
"64",4004,70,1,1,1,8,0,"SP_ST-_RT+_PC-",0,0,0,1,1,1.49766666666667,0.219783514124294,40,60,1
"65",4004,70,1,1,1,8,0,"SP_ST-_RT-_PC+",0,1,1,1,6,1.05191666666667,0.200524043785311,53,60,1
"66",4004,70,1,1,1,8,0,"SP_ST-_RT-_PC-",0,1,0,1,8,1.07836666666667,0.164194032768362,50,60,1
"67",4004,70,1,1,1,8,0,"WD_ST+_RT+_PC+",1,0,1,0,6,1.37051666666667,0.23446750819209,60,60,1
"68",4004,70,1,1,1,8,0,"WD_ST+_RT+_PC-",1,0,0,0,2,1.9389,0.711973142372881,53,60,1
"69",4004,70,1,1,1,8,0,"WD_ST+_RT-_PC+",1,1,1,0,3,1.23388333333333,0.104454748870056,55,60,1
"70",4004,70,1,1,1,8,0,"WD_ST+_RT-_PC-",1,1,0,0,1,1.5723275862069,0.0893014171203872,50,58,1
"71",4004,70,1,1,1,8,0,"WD_ST-_RT+_PC+",0,0,1,0,4,1.29395,0.296067336440678,54,60,1
"72",4004,70,1,1,1,8,0,"WD_ST-_RT+_PC-",0,0,0,0,7,1.13015,0.0959178584745763,60,60,1
"73",4004,70,1,1,1,8,0,"WD_ST-_RT-_PC+",0,1,1,0,5,1.00326666666667,0.0636657920903955,59,60,1
"74",4004,70,1,1,1,8,0,"WD_ST-_RT-_PC-",0,1,0,0,8,1.13845762711864,0.0970025283459965,58,59,1
"75",4005,49,1,1,2,8,0,"SP_ST+_RT+_PC+",1,0,1,1,8,1.17438333333333,0.190749426836158,57,60,1
"76",4005,49,1,1,2,8,0,"SP_ST+_RT+_PC-",1,0,0,1,1,1.84676271186441,0.796659184102864,42,59,1
"77",4005,49,1,1,2,8,0,"SP_ST+_RT-_PC+",1,1,1,1,6,1.15288333333333,0.223968613276836,48,60,1
"78",4005,49,1,1,2,8,0,"SP_ST+_RT-_PC-",1,1,0,1,2,1.16743103448276,0.0880722846339988,44,58,1
"79",4005,49,1,1,2,8,0,"SP_ST-_RT+_PC+",0,0,1,1,5,1.04783333333333,0.0826936666666667,50,60,1
"80",4005,49,1,1,2,8,0,"SP_ST-_RT+_PC-",0,0,0,1,4,1.13531666666667,0.128426525141243,46,60,1
"81",4005,49,1,1,2,8,0,"SP_ST-_RT-_PC+",0,1,1,1,3,1.28735,0.147757722881356,50,60,1
"82",4005,49,1,1,2,8,0,"SP_ST-_RT-_PC-",0,1,0,1,7,1.02008333333333,0.0536475692090395,50,60,1
"83",4005,49,1,1,2,8,0,"WD_ST+_RT+_PC+",1,0,1,0,5,1.22191666666667,0.118370620056497,58,60,1
"84",4005,49,1,1,2,8,0,"WD_ST+_RT+_PC-",1,0,0,0,1,1.86576666666667,0.716573809039548,57,60,1
"85",4005,49,1,1,2,8,0,"WD_ST+_RT-_PC+",1,1,1,0,3,1.29189830508475,0.191978334307423,58,59,1
"86",4005,49,1,1,2,8,0,"WD_ST+_RT-_PC-",1,1,0,0,7,1.19566666666667,0.0906204293785311,60,60,1
"87",4005,49,1,1,2,8,0,"WD_ST-_RT+_PC+",0,0,1,0,6,0.879616666666667,0.013930952259887,60,60,1
"88",4005,49,1,1,2,8,0,"WD_ST-_RT+_PC-",0,0,0,0,2,1.22545,0.106710590677966,59,60,1
"89",4005,49,1,1,2,8,0,"WD_ST-_RT-_PC+",0,1,1,0,8,0.919316666666667,0.022878152259887,60,60,1
"90",4005,49,1,1,2,8,0,"WD_ST-_RT-_PC-",0,1,0,0,4,1.02401666666667,0.0195271692090395,60,60,1
"91",4006,40,1,1,1,6,0,"SP_ST+_RT+_PC+",1,0,1,1,8,1.38525,0.237251716101695,59,60,1
"92",4006,40,1,1,1,6,0,"SP_ST+_RT+_PC-",1,0,0,1,1,2.02605,0.881050590677966,50,60,1
"93",4006,40,1,1,1,6,0,"SP_ST+_RT-_PC+",1,1,1,1,6,1.25201666666667,0.214690660734463,58,60,1
"94",4006,40,1,1,1,6,0,"SP_ST+_RT-_PC-",1,1,0,1,2,1.41562711864407,0.207816617182934,56,59,1
"95",4006,40,1,1,1,6,0,"SP_ST-_RT+_PC+",0,0,1,1,5,1.6638,0.55651026440678,46,60,1
"96",4006,40,1,1,1,6,0,"SP_ST-_RT+_PC-",0,0,0,1,4,1.42978333333333,0.473914613276836,54,60,1
"97",4006,40,1,1,1,6,0,"SP_ST-_RT-_PC+",0,1,1,1,3,1.40714035087719,0.200627194235589,50,57,1
"98",4006,40,1,1,1,6,0,"SP_ST-_RT-_PC-",0,1,0,1,7,1.38030508474576,0.269869319111631,46,59,1
"99",4006,40,1,1,1,6,0,"WD_ST+_RT+_PC+",1,0,1,0,5,1.64526666666667,0.377306775141243,57,60,1
"100",4006,40,1,1,1,6,0,"WD_ST+_RT+_PC-",1,0,0,0,1,2.70363333333333,0.728002609039548,59,60,1
"101",4006,40,1,1,1,6,0,"WD_ST+_RT-_PC+",1,1,1,0,3,1.43813793103448,0.228878963097399,57,58,1
"102",4006,40,1,1,1,6,0,"WD_ST+_RT-_PC-",1,1,0,0,7,1.33908474576271,0.163073734073641,58,59,1
"103",4006,40,1,1,1,6,0,"WD_ST-_RT+_PC+",0,0,1,0,6,1.36691666666667,0.124252552259887,60,60,1
"104",4006,40,1,1,1,6,0,"WD_ST-_RT+_PC-",0,0,0,0,2,1.87179661016949,0.313653647574518,58,59,1
"105",4006,40,1,1,1,6,0,"WD_ST-_RT-_PC+",0,1,1,0,8,1.01316666666667,0.0514861073446328,60,60,1
"106",4006,40,1,1,1,6,0,"WD_ST-_RT-_PC-",0,1,0,0,4,1.01613333333333,0.0787511344632768,59,60,1
"107",4007,62,1,1,2,4,0,"SP_ST+_RT+_PC+",1,0,1,1,8,1.47518333333333,0.212603101412429,57,60,1
"108",4007,62,1,1,2,4,0,"SP_ST+_RT+_PC-",1,0,0,1,1,1.8194,0.855496820338983,50,60,1
"109",4007,62,1,1,2,4,0,"SP_ST+_RT-_PC+",1,1,1,1,6,1.43422033898305,0.122112760958504,55,59,1
"110",4007,62,1,1,2,4,0,"SP_ST-_RT+_PC+",0,0,1,1,5,1.73178333333333,0.823669867514124,53,60,1
"111",4007,62,1,1,2,4,0,"SP_ST-_RT-_PC+",0,1,1,1,3,1.53522413793103,0.238131475196612,47,58,1
"112",4007,62,1,1,2,4,0,"SP_ST-_RT-_PC-",0,1,0,1,7,1.35463157894737,0.119545379699248,52,57,1
"113",4007,62,1,1,2,4,0,"WD_ST+_RT+_PC+",1,0,1,0,5,1.702,0.276134677966102,59,60,1
"114",4007,62,1,1,2,4,0,"WD_ST+_RT+_PC-",1,0,0,0,1,2.15595,0.49933021779661,58,60,1
"115",4007,62,1,1,2,4,0,"WD_ST+_RT-_PC+",1,1,1,0,3,1.51145614035088,0.195913395363409,57,57,1
"116",4007,62,1,1,2,4,0,"WD_ST+_RT-_PC-",1,1,0,0,7,1.68221666666667,0.151236409887006,58,60,1
"117",4007,62,1,1,2,4,0,"WD_ST-_RT+_PC+",0,0,1,0,6,1.22823333333333,0.0934303514124294,58,60,1
"118",4007,62,1,1,2,4,0,"WD_ST-_RT-_PC+",0,1,1,0,8,1.51215,0.228407790677966,55,60,1
"119",4008,56,1,1,1,6,1,"SP_ST+_RT+_PC+",1,0,1,1,7,1.50456666666667,0.18011862259887,46,60,1
"120",4008,56,1,1,1,6,1,"SP_ST+_RT+_PC-",1,0,0,1,1,1.33618644067797,0.112011947399182,39,59,1
"121",4008,56,1,1,1,6,1,"SP_ST+_RT-_PC+",1,1,1,1,6,1.45555172413793,0.137353409558379,49,58,1
"122",4008,56,1,1,1,6,1,"SP_ST+_RT-_PC-",1,1,0,1,3,1.50193220338983,0.265184926358854,43,59,1
"123",4008,56,1,1,1,6,1,"SP_ST-_RT+_PC+",0,0,1,1,4,1.29063333333333,0.0766640666666667,44,60,1
"124",4008,56,1,1,1,6,1,"SP_ST-_RT+_PC-",0,0,0,1,8,1.34435,0.178395383898305,42,60,1
"125",4008,56,1,1,1,6,1,"SP_ST-_RT-_PC+",0,1,1,1,2,1.36728333333333,0.177709901412429,38,60,1
"126",4008,56,1,1,1,6,1,"SP_ST-_RT-_PC-",0,1,0,1,5,1.28473333333333,0.0465662666666667,37,60,1
"127",4008,56,1,1,1,6,1,"WD_ST+_RT+_PC+",1,0,1,0,2,1.54753333333333,0.351434693785311,53,60,1
"128",4008,56,1,1,1,6,1,"WD_ST+_RT+_PC-",1,0,0,0,3,1.86385,0.585122638135593,55,60,1
"129",4008,56,1,1,1,6,1,"WD_ST+_RT-_PC+",1,1,1,0,4,1.50466101694915,0.179627296902396,59,59,1
"130",4008,56,1,1,1,6,1,"WD_ST+_RT-_PC-",1,1,0,0,5,1.51,0.168361333333333,51,58,1
"131",4008,56,1,1,1,6,1,"WD_ST-_RT+_PC+",0,0,1,0,6,1.33791666666667,0.217915162429379,51,60,1
"132",4008,56,1,1,1,6,1,"WD_ST-_RT+_PC-",0,0,0,0,8,1.63055,0.346803336440678,49,60,1
"133",4008,56,1,1,1,6,1,"WD_ST-_RT-_PC+",0,1,1,0,7,1.12252542372881,0.0458755639976622,53,59,1
"134",4008,56,1,1,1,6,1,"WD_ST-_RT-_PC-",0,1,0,0,1,1.19991111111111,0.192139719191919,41,45,1
"135",4009,47,1,1,2,9,0,"SP_ST+_RT+_PC+",1,0,1,1,4,1.3338,0.189089586440678,59,60,1
"136",4009,47,1,1,2,9,0,"SP_ST+_RT+_PC-",1,0,0,1,2,1.61291666666667,0.26760984039548,60,60,1
"137",4009,47,1,1,2,9,0,"SP_ST+_RT-_PC+",1,1,1,1,5,1.36433333333333,0.13324494047619,57,57,1
"138",4009,47,1,1,2,9,0,"SP_ST+_RT-_PC-",1,1,0,1,7,1.29727118644068,0.136371925189947,58,59,1
"139",4009,47,1,1,2,9,0,"SP_ST-_RT+_PC+",0,0,1,1,3,1.3065,0.161297033898305,58,60,1
"140",4009,47,1,1,2,9,0,"SP_ST-_RT+_PC-",0,0,0,1,1,1.262,0.112932169491525,51,60,1
"141",4009,47,1,1,2,9,0,"SP_ST-_RT-_PC+",0,1,1,1,6,1.22289655172414,0.108370199637024,57,58,1
"142",4009,47,1,1,2,9,0,"SP_ST-_RT-_PC-",0,1,0,1,8,1.25221666666667,0.0867415285310734,59,60,1
"143",4009,47,1,1,2,9,0,"WD_ST+_RT+_PC+",1,0,1,0,6,1.34078333333333,0.113332884463277,60,60,1
"144",4009,47,1,1,2,9,0,"WD_ST+_RT+_PC-",1,0,0,0,2,1.70471666666667,0.134181359039548,59,60,1
"145",4009,47,1,1,2,9,0,"WD_ST+_RT-_PC+",1,1,1,0,3,1.48033333333333,0.155953514124294,60,60,1
"146",4009,47,1,1,2,9,0,"WD_ST+_RT-_PC-",1,1,0,0,1,1.82771186440678,0.210195381063705,59,59,1
"147",4009,47,1,1,2,9,0,"WD_ST-_RT+_PC+",0,0,1,0,4,1.23383333333333,0.0916352937853107,60,60,1
"148",4009,47,1,1,2,9,0,"WD_ST-_RT+_PC-",0,0,0,0,7,1.18501666666667,0.0787154742937853,58,60,1
"149",4009,47,1,1,2,9,0,"WD_ST-_RT-_PC+",0,1,1,0,5,1.2233,0.148542349152542,60,60,1
"150",4009,47,1,1,2,9,0,"WD_ST-_RT-_PC-",0,1,0,0,8,1.28796666666667,0.0666409141242938,59,60,1
"151",4010,72,2,1,2,8,0,"SP_ST+_RT+_PC-",1,0,0,1,2,1.67456666666667,0.362233537853107,36,60,1
"152",4010,72,2,1,2,8,0,"SP_ST+_RT-_PC+",1,1,1,1,5,1.65936363636364,0.289629087542088,33,55,1
"153",4010,72,2,1,2,8,0,"SP_ST+_RT-_PC-",1,1,0,1,7,1.67213333333333,0.120080693785311,42,60,1
"154",4010,72,2,1,2,8,0,"SP_ST-_RT+_PC-",0,0,0,1,1,1.662,0.208083525423729,39,60,1
"155",4010,72,2,1,2,8,0,"SP_ST-_RT-_PC-",0,1,0,1,8,1.63886666666667,0.20340042259887,41,60,1
"156",4010,72,2,1,2,8,0,"WD_ST+_RT+_PC-",1,0,0,0,2,2.292625,1.42137398409091,32,56,1
"157",4010,72,2,1,2,8,0,"WD_ST+_RT-_PC-",1,1,0,0,1,2.07496428571429,0.137117853246753,33,56,1
"158",4010,72,2,1,2,8,0,"WD_ST-_RT+_PC-",0,0,0,0,7,1.94426666666667,0.190396707344633,39,60,1
"159",4010,72,2,1,2,8,0,"WD_ST-_RT-_PC+",0,1,1,0,5,1.76066666666667,0.181328905660377,41,54,1
"160",4010,72,2,1,2,8,0,"WD_ST-_RT-_PC-",0,1,0,0,8,1.9184,0.191511159322034,36,60,1
"161",4011,39,1,1,1,5,0,"SP_ST+_RT+_PC+",1,0,1,1,7,0.985,0.0697350169491525,47,60,1
"162",4011,39,1,1,1,5,0,"SP_ST+_RT+_PC-",1,0,0,1,1,1.23228333333333,0.105616545480226,48,60,1
"163",4011,39,1,1,1,5,0,"SP_ST+_RT-_PC-",1,1,0,1,3,1.02653333333333,0.0665065581920904,44,60,1
"164",4011,39,1,1,1,5,0,"SP_ST-_RT+_PC+",0,0,1,1,4,0.975016666666667,0.130035033615819,48,60,1
"165",4011,39,1,1,1,5,0,"SP_ST-_RT+_PC-",0,0,0,1,8,0.854633333333333,0.0331656259887006,42,60,1
"166",4011,39,1,1,1,5,0,"SP_ST-_RT-_PC+",0,1,1,1,2,0.97195,0.0534764550847458,47,60,1
"167",4011,39,1,1,1,5,0,"WD_ST+_RT+_PC+",1,0,1,0,2,1.19105,0.346027031355932,48,60,1
"168",4011,39,1,1,1,5,0,"WD_ST+_RT+_PC-",1,0,0,0,3,1.01898333333333,0.0502201861581921,56,60,1
"169",4011,39,1,1,1,5,0,"WD_ST+_RT-_PC+",1,1,1,0,4,1.20733333333333,0.231967649717514,51,60,1
"170",4011,39,1,1,1,5,0,"WD_ST-_RT+_PC-",0,0,0,0,8,0.878216666666667,0.11611017259887,53,60,1
"171",4011,39,1,1,1,5,0,"WD_ST-_RT-_PC+",0,1,1,0,7,0.963694915254237,0.161150974284044,55,59,1
"172",4011,39,1,1,1,5,0,"WD_ST-_RT-_PC-",0,1,0,0,1,1.2625593220339,0.110041940385739,45,59,1
"173",4012,67,1,1,1,3,1,"SP_ST+_RT+_PC+",1,0,1,1,8,1.82806666666667,1.04394148700565,49,60,1
"174",4012,67,1,1,1,3,1,"SP_ST+_RT+_PC-",1,0,0,1,1,1.87805,0.377809336440678,53,60,1
"175",4012,67,1,1,1,3,1,"SP_ST+_RT-_PC+",1,1,1,1,6,1.35735593220339,0.161573991817651,52,59,1
"176",4012,67,1,1,1,3,1,"SP_ST+_RT-_PC-",1,1,0,1,2,1.5340701754386,0.261048744987469,49,57,1
"177",4012,67,1,1,1,3,1,"SP_ST-_RT+_PC+",0,0,1,1,5,1.42128333333333,0.158186748870057,47,60,1
"178",4012,67,1,1,1,3,1,"SP_ST-_RT+_PC-",0,0,0,1,4,1.43885,0.292773655084746,53,60,1
"179",4012,67,1,1,1,3,1,"SP_ST-_RT-_PC+",0,1,1,1,3,1.4981724137931,0.167498460980036,51,58,1
"180",4012,67,1,1,1,3,1,"SP_ST-_RT-_PC-",0,1,0,1,7,1.3219,0.179283583050847,57,60,1
"181",4012,67,1,1,1,3,1,"WD_ST+_RT+_PC+",1,0,1,0,5,1.66215,0.364923722881356,58,60,1
"182",4012,67,1,1,1,3,1,"WD_ST+_RT+_PC-",1,0,0,0,1,1.87653333333333,0.409909981920904,57,60,1
"183",4012,67,1,1,1,3,1,"WD_ST+_RT-_PC+",1,1,1,0,3,1.65125862068966,0.201134861766485,55,58,1
"184",4012,67,1,1,1,3,1,"WD_ST+_RT-_PC-",1,1,0,0,7,1.41481355932203,0.172518774985389,58,59,1
"185",4012,67,1,1,1,3,1,"WD_ST-_RT+_PC+",0,0,1,0,6,1.46353333333333,0.427755981920904,58,60,1
"186",4012,67,1,1,1,3,1,"WD_ST-_RT+_PC-",0,0,0,0,2,1.60706666666667,0.270873080225989,54,60,1
"187",4012,67,1,1,1,3,1,"WD_ST-_RT-_PC+",0,1,1,0,8,1.35687931034483,0.236780950090744,54,58,1
"188",4012,67,1,1,1,3,1,"WD_ST-_RT-_PC-",0,1,0,0,4,1.4565,0.145563447368421,56,58,1
"189",4013,66,1,1,1,5,0,"SP_ST+_RT+_PC+",1,0,1,1,4,1.92788333333333,0.660564443785311,50,60,1
"190",4013,66,1,1,1,5,0,"SP_ST+_RT+_PC-",1,0,0,1,2,2.51586666666667,1.00315835480226,49,60,1
"191",4013,66,1,1,1,5,0,"SP_ST+_RT-_PC+",1,1,1,1,5,1.63898181818182,0.280840795959596,42,55,1
"192",4013,66,1,1,1,5,0,"SP_ST+_RT-_PC-",1,1,0,1,7,1.70226785714286,0.313014926948052,49,56,1
"193",4013,66,1,1,1,5,0,"SP_ST-_RT+_PC+",0,0,1,1,3,1.76243333333333,0.261074453107345,42,60,1
"194",4013,66,1,1,1,5,0,"SP_ST-_RT+_PC-",0,0,0,1,1,1.71116666666667,0.227174615819209,46,60,1
"195",4013,66,1,1,1,5,0,"SP_ST-_RT-_PC+",0,1,1,1,6,1.561,0.205345607142857,48,57,1
"196",4013,66,1,1,1,5,0,"SP_ST-_RT-_PC-",0,1,0,1,8,1.81929411764706,0.248893771764706,38,51,1
"197",4013,66,1,1,1,5,0,"WD_ST+_RT+_PC+",1,0,1,0,6,1.68676666666667,0.405578961581921,54,60,1
"198",4013,66,1,1,1,5,0,"WD_ST+_RT+_PC-",1,0,0,0,2,2.85203333333333,1.33143254124294,48,60,1
"199",4013,66,1,1,1,5,0,"WD_ST+_RT-_PC+",1,1,1,0,3,1.71076923076923,0.206418769230769,44,52,1
"200",4013,66,1,1,1,5,0,"WD_ST+_RT-_PC-",1,1,0,0,1,1.86201923076923,0.239377470211161,45,52,1
"201",4013,66,1,1,1,5,0,"WD_ST-_RT+_PC+",0,0,1,0,4,1.77636666666667,0.444689185310734,50,60,1
"202",4013,66,1,1,1,5,0,"WD_ST-_RT+_PC-",0,0,0,0,7,1.67715,0.199432061864407,51,60,1
"203",4013,66,1,1,1,5,0,"WD_ST-_RT-_PC+",0,1,1,0,5,1.69455172413793,0.308370251663642,46,58,1
"204",4013,66,1,1,1,5,0,"WD_ST-_RT-_PC-",0,1,0,0,8,1.85118604651163,0.209098440753045,31,43,1
"205",4014,31,1,1,1,9,1,"SP_ST+_RT+_PC+",1,0,1,1,8,1.12693333333333,0.0995903683615819,47,60,1
"206",4014,31,1,1,1,9,1,"SP_ST+_RT-_PC-",1,1,0,1,2,1.39438181818182,0.314975425589226,38,55,1
"207",4014,31,1,1,1,9,1,"SP_ST-_RT+_PC+",0,0,1,1,5,1.19371666666667,0.329684748870056,46,60,1
"208",4014,31,1,1,1,9,1,"SP_ST-_RT+_PC-",0,0,0,1,4,1.20056666666667,0.422622080225989,48,60,1
"209",4014,31,1,1,1,9,1,"SP_ST-_RT-_PC-",0,1,0,1,7,1.10423333333333,0.163717470056497,45,60,1
"210",4014,31,1,1,1,9,1,"WD_ST+_RT+_PC+",1,0,1,0,5,1.2548,0.345194230508475,40,60,1
"211",4014,31,1,1,1,9,1,"WD_ST+_RT-_PC-",1,1,0,0,7,1.09018333333333,0.147779575988701,53,60,1
"212",4014,31,1,1,1,9,1,"WD_ST-_RT+_PC-",0,0,0,0,2,1.58010169491525,0.410774575686733,48,59,1
"213",4014,31,1,1,1,9,1,"WD_ST-_RT-_PC+",0,1,1,0,8,1.09166666666667,0.159278833333333,51,57,1
"214",4014,31,1,1,1,9,1,"WD_ST-_RT-_PC-",0,1,0,0,4,1.1971,0.174637515254237,45,60,1
"215",4015,48,1,1,1,8,0,"SP_ST+_RT+_PC+",1,0,1,1,8,1.16098333333333,0.121363270903955,55,60,1
"216",4015,48,1,1,1,8,0,"SP_ST+_RT+_PC-",1,0,0,1,1,1.90613333333333,1.02906018531073,55,60,1
"217",4015,48,1,1,1,8,0,"SP_ST+_RT-_PC+",1,1,1,1,6,1.1688,0.0882426711864407,55,60,1
"218",4015,48,1,1,1,8,0,"SP_ST+_RT-_PC-",1,1,0,1,2,1.26035593220339,0.24704450905903,53,59,1
"219",4015,48,1,1,1,8,0,"SP_ST-_RT+_PC+",0,0,1,1,5,1.11123333333333,0.101997910734463,44,60,1
"220",4015,48,1,1,1,8,0,"SP_ST-_RT+_PC-",0,0,0,1,4,1.12513333333333,0.0929593717514124,49,60,1
"221",4015,48,1,1,1,8,0,"SP_ST-_RT-_PC+",0,1,1,1,3,1.22216666666667,0.0970584124293785,42,60,1
"222",4015,48,1,1,1,8,0,"SP_ST-_RT-_PC-",0,1,0,1,7,0.973666666666667,0.0451093446327684,50,60,1
"223",4015,48,1,1,1,8,0,"WD_ST+_RT+_PC+",1,0,1,0,5,1.32193333333333,0.188371215819209,55,60,1
"224",4015,48,1,1,1,8,0,"WD_ST+_RT+_PC-",1,0,0,0,1,1.77023333333333,0.886275436158192,58,60,1
"225",4015,48,1,1,1,8,0,"WD_ST+_RT-_PC+",1,1,1,0,3,1.27483333333333,0.145556378531073,58,60,1
"226",4015,48,1,1,1,8,0,"WD_ST+_RT-_PC-",1,1,0,0,7,1.2758,0.086423213559322,57,60,1
"227",4015,48,1,1,1,8,0,"WD_ST-_RT+_PC+",0,0,1,0,6,1.0093,0.0581277728813559,58,60,1
"228",4015,48,1,1,1,8,0,"WD_ST-_RT+_PC-",0,0,0,0,2,1.3258813559322,0.242460658094681,55,59,1
"229",4015,48,1,1,1,8,0,"WD_ST-_RT-_PC+",0,1,1,0,8,0.949233333333333,0.0441059446327684,55,60,1
"230",4015,48,1,1,1,8,0,"WD_ST-_RT-_PC-",0,1,0,0,4,1.10148333333333,0.0711953048022599,57,60,1
"231",4016,34,6,1,1,5,0,"SP_ST+_RT+_PC+",1,0,1,1,8,0.795333333333333,0.0831280225988701,52,60,1
"232",4016,34,6,1,1,5,0,"SP_ST+_RT+_PC-",1,0,0,1,1,1.41228813559322,0.804693243132671,42,59,1
"233",4016,34,6,1,1,5,0,"SP_ST+_RT-_PC+",1,1,1,1,6,1.14149090909091,0.413213217508417,46,55,1
"234",4016,34,6,1,1,5,0,"SP_ST-_RT+_PC+",0,0,1,1,5,0.686966666666667,0.0149847785310734,54,60,1
"235",4016,34,6,1,1,5,0,"SP_ST-_RT+_PC-",0,0,0,1,4,0.820016666666667,0.0591280166666667,35,60,1
"236",4016,34,6,1,1,5,0,"SP_ST-_RT-_PC+",0,1,1,1,3,0.982947368421053,0.131373729323308,53,57,1
"237",4016,34,6,1,1,5,0,"WD_ST+_RT+_PC+",1,0,1,0,5,1.48581034482759,0.836009068663037,27,58,1
"238",4016,34,6,1,1,5,0,"WD_ST+_RT+_PC-",1,0,0,0,1,1.19865,0.408153892372881,53,60,1
"239",4016,34,6,1,1,5,0,"WD_ST+_RT-_PC+",1,1,1,0,3,1.27192156862745,0.30213675372549,38,51,1
"240",4016,34,6,1,1,5,0,"WD_ST-_RT+_PC+",0,0,1,0,6,1.48363333333333,0.905546405649718,54,60,1
"241",4016,34,6,1,1,5,0,"WD_ST-_RT-_PC+",0,1,1,0,8,1.05516949152542,0.18516255698422,57,59,1
"242",4016,34,6,1,1,5,0,"WD_ST-_RT-_PC-",0,1,0,0,4,0.888966666666667,0.0436396937853107,59,60,1
"243",4017,56,1,1,1,6,1,"SP_ST+_RT+_PC+",1,0,1,1,8,1.5458,0.391825755932203,40,60,1
"244",4017,56,1,1,1,6,1,"SP_ST+_RT+_PC-",1,0,0,1,1,1.53635,0.188624231355932,43,60,1
"245",4017,56,1,1,1,6,1,"SP_ST+_RT-_PC+",1,1,1,1,6,1.35433333333333,0.124820531073446,41,60,1
"246",4017,56,1,1,1,6,1,"SP_ST+_RT-_PC-",1,1,0,1,2,1.53555,0.154011370338983,42,60,1
"247",4017,56,1,1,1,6,1,"SP_ST-_RT+_PC+",0,0,1,1,5,1.30316666666667,0.130674988700565,42,60,1
"248",4017,56,1,1,1,6,1,"SP_ST-_RT+_PC-",0,0,0,1,4,1.32878333333333,0.147552613276836,51,60,1
"249",4017,56,1,1,1,6,1,"SP_ST-_RT-_PC+",0,1,1,1,3,1.44128813559322,0.121275932787843,39,59,1
"250",4017,56,1,1,1,6,1,"SP_ST-_RT-_PC-",0,1,0,1,7,1.2912,0.134910366101695,49,60,1
"251",4017,56,1,1,1,6,1,"WD_ST+_RT+_PC+",1,0,1,0,5,1.89486666666667,0.617262388700565,54,60,1
"252",4017,56,1,1,1,6,1,"WD_ST+_RT+_PC-",1,0,0,0,1,1.69426666666667,0.224551961581921,53,60,1
"253",4017,56,1,1,1,6,1,"WD_ST+_RT-_PC+",1,1,1,0,3,1.88344444444444,0.205595006289308,50,54,1
"254",4017,56,1,1,1,6,1,"WD_ST+_RT-_PC-",1,1,0,0,7,1.502,0.138117137931034,52,59,1
"255",4017,56,1,1,1,6,1,"WD_ST-_RT+_PC+",0,0,1,0,6,1.16605,0.0767906584745763,59,60,1
"256",4017,56,1,1,1,6,1,"WD_ST-_RT+_PC-",0,0,0,0,2,1.28795,0.105116319491525,54,60,1
"257",4017,56,1,1,1,6,1,"WD_ST-_RT-_PC+",0,1,1,0,8,1.46087931034483,0.229708107985481,52,58,1
"258",4017,56,1,1,1,6,1,"WD_ST-_RT-_PC-",0,1,0,0,4,1.45253333333333,0.138318456497175,56,60,1
"259",4018,39,1,1,1,6,0,"SP_ST+_RT+_PC+",1,0,1,1,6,1.05868333333333,0.0507200505649718,47,60,1
"260",4018,39,1,1,1,6,0,"SP_ST+_RT-_PC+",1,1,1,1,3,1.02801666666667,0.101706355649718,44,60,1
"261",4018,39,1,1,1,6,0,"SP_ST+_RT-_PC-",1,1,0,1,1,1.33943333333333,0.161543029378531,46,60,1
"262",4018,39,1,1,1,6,0,"SP_ST-_RT+_PC+",0,0,1,1,7,0.953316666666667,0.160634728531073,46,60,1
"263",4018,39,1,1,1,6,0,"SP_ST-_RT+_PC-",0,0,0,1,2,1.11268333333333,0.192757101412429,45,60,1
"264",4018,39,1,1,1,6,0,"SP_ST-_RT-_PC+",0,1,1,1,8,1.13798333333333,0.188492626836158,42,60,1
"265",4018,39,1,1,1,6,0,"SP_ST-_RT-_PC-",0,1,0,1,5,1.12631666666667,0.0790312370056497,45,60,1
"266",4018,39,1,1,1,6,0,"WD_ST+_RT+_PC+",1,0,1,0,8,1.45163333333333,0.17756935480226,43,60,1
"267",4018,39,1,1,1,6,0,"WD_ST+_RT+_PC-",1,0,0,0,1,1.32278333333333,0.0712752573446328,52,60,1
"268",4018,39,1,1,1,6,0,"WD_ST+_RT-_PC+",1,1,1,0,3,1.24140677966102,0.148749210987726,36,59,1
"269",4018,39,1,1,1,6,0,"WD_ST+_RT-_PC-",1,1,0,0,5,1.12663333333333,0.0954511853107345,44,60,1
"270",4018,39,1,1,1,6,0,"WD_ST-_RT+_PC+",0,0,1,0,6,1.01373333333333,0.0795506395480226,43,60,1
"271",4018,39,1,1,1,6,0,"WD_ST-_RT-_PC+",0,1,1,0,7,1.17217857142857,0.11341244025974,35,56,1
"272",4018,39,1,1,1,6,0,"WD_ST-_RT-_PC-",0,1,0,0,2,1.33623333333333,0.173936893785311,49,60,1
"273",4019,37,5,1,2,3,0,"SP_ST+_RT+_PC+",1,0,1,1,6,0.954083333333333,0.0585563149717514,53,60,1
"274",4019,37,5,1,2,3,0,"SP_ST+_RT+_PC-",1,0,0,1,4,0.99255,0.0922086923728814,45,60,1
"275",4019,37,5,1,2,3,0,"SP_ST+_RT-_PC+",1,1,1,1,3,0.898083333333333,0.0306665183615819,46,60,1
"276",4019,37,5,1,2,3,0,"SP_ST+_RT-_PC-",1,1,0,1,1,1.2168813559322,0.193681968439509,38,59,1
"277",4019,37,5,1,2,3,0,"SP_ST-_RT+_PC+",0,0,1,1,7,0.8394,0.0240491593220339,53,60,1
"278",4019,37,5,1,2,3,0,"SP_ST-_RT+_PC-",0,0,0,1,2,0.959733333333333,0.0441052497175141,46,60,1
"279",4019,37,5,1,2,3,0,"SP_ST-_RT-_PC+",0,1,1,1,8,0.796366666666667,0.0536664395480226,55,60,1
"280",4019,37,5,1,2,3,0,"SP_ST-_RT-_PC-",0,1,0,1,5,0.769416666666667,0.018109331920904,43,60,1
"281",4019,37,5,1,2,3,0,"WD_ST+_RT+_PC+",1,0,1,0,8,1.02488333333333,0.219205562429379,58,60,1
"282",4019,37,5,1,2,3,0,"WD_ST+_RT+_PC-",1,0,0,0,1,3.978,1.2482,2,2,1
"283",4019,37,5,1,2,3,0,"WD_ST+_RT-_PC+",1,1,1,0,3,0.955783333333333,0.0454152573446328,51,60,1
"284",4019,37,5,1,2,3,0,"WD_ST+_RT-_PC-",1,1,0,0,5,1.12805,0.0630104550847458,51,60,1
"285",4019,37,5,1,2,3,0,"WD_ST-_RT+_PC+",0,0,1,0,6,0.8867,0.10471333220339,52,60,1
"286",4019,37,5,1,2,3,0,"WD_ST-_RT+_PC-",0,0,0,0,4,1.03901666666667,0.0678901861581921,52,60,1
"287",4019,37,5,1,2,3,0,"WD_ST-_RT-_PC+",0,1,1,0,7,0.903033333333333,0.0809899649717514,54,60,1
"288",4019,37,5,1,2,3,0,"WD_ST-_RT-_PC-",0,1,0,0,2,1.21613559322034,0.183911326125073,35,59,1
"289",4020,65,3,1,1,5,0,"SP_ST+_RT+_PC+",1,0,1,1,8,1.1676,0.149964040677966,43,60,1
"290",4020,65,3,1,1,5,0,"SP_ST+_RT+_PC-",1,0,0,1,1,1.9956,0.522231091525424,38,60,1
"291",4020,65,3,1,1,5,0,"SP_ST+_RT-_PC+",1,1,1,1,6,1.35263793103448,0.237419182395644,45,58,1
"292",4020,65,3,1,1,5,0,"SP_ST+_RT-_PC-",1,1,0,1,2,1.60137288135593,0.192355927527762,37,59,1
"293",4020,65,3,1,1,5,0,"SP_ST-_RT+_PC+",0,0,1,1,5,1.5451,0.413613718644068,50,60,1
"294",4020,65,3,1,1,5,0,"SP_ST-_RT+_PC-",0,0,0,1,4,1.52755,0.222554895762712,43,60,1
"295",4020,65,3,1,1,5,0,"SP_ST-_RT-_PC+",0,1,1,1,3,1.53584482758621,0.27096508076225,48,58,1
"296",4020,65,3,1,1,5,0,"SP_ST-_RT-_PC-",0,1,0,1,7,1.28085,0.263454400847458,41,60,1
"297",4020,65,3,1,1,5,0,"WD_ST+_RT+_PC+",1,0,1,0,5,1.32061666666667,0.273204918361582,59,60,1
"298",4020,65,3,1,1,5,0,"WD_ST+_RT+_PC-",1,0,0,0,1,1.91026666666667,0.904266503954802,57,60,1
"299",4020,65,3,1,1,5,0,"WD_ST+_RT-_PC+",1,1,1,0,3,1.10806666666667,0.147061859887006,59,60,1
"300",4020,65,3,1,1,5,0,"WD_ST+_RT-_PC-",1,1,0,0,7,1.00113559322034,0.116265257159556,56,59,1
"301",4020,65,3,1,1,5,0,"WD_ST-_RT+_PC+",0,0,1,0,6,1.05781666666667,0.0799692370056497,53,60,1
"302",4020,65,3,1,1,5,0,"WD_ST-_RT+_PC-",0,0,0,0,2,1.3758,0.234513111864407,59,60,1
"303",4020,65,3,1,1,5,0,"WD_ST-_RT-_PC+",0,1,1,0,8,0.768084745762712,0.0241522513150205,56,59,1
"304",4020,65,3,1,1,5,0,"WD_ST-_RT-_PC-",0,1,0,0,4,0.923933333333333,0.106906876836158,56,60,1
"305",4021,55,1,1,1,6,0,"SP_ST+_RT+_PC+",1,0,1,1,7,1.06013333333333,0.0932922192090395,51,60,1
"306",4021,55,1,1,1,6,0,"SP_ST+_RT+_PC-",1,0,0,1,1,1.46415,0.365797316101695,43,60,1
"307",4021,55,1,1,1,6,0,"SP_ST+_RT-_PC+",1,1,1,1,6,1.13686666666667,0.11628442259887,51,60,1
"308",4021,55,1,1,1,6,0,"SP_ST+_RT-_PC-",1,1,0,1,3,1.35376271186441,0.185537942723553,39,59,1
"309",4021,55,1,1,1,6,0,"SP_ST-_RT+_PC+",0,0,1,1,4,1.40835,0.164712807627119,38,60,1
"310",4021,55,1,1,1,6,0,"SP_ST-_RT+_PC-",0,0,0,1,8,1.10563333333333,0.0940356259887006,38,60,1
"311",4021,55,1,1,1,6,0,"SP_ST-_RT-_PC+",0,1,1,1,2,1.31462711864407,0.166381306838106,50,59,1
"312",4021,55,1,1,1,6,0,"SP_ST-_RT-_PC-",0,1,0,1,5,1.13425,0.0471827669491525,36,60,1
"313",4021,55,1,1,1,6,0,"WD_ST+_RT+_PC+",1,0,1,0,2,1.47211666666667,0.300642782768362,46,60,1
"314",4021,55,1,1,1,6,0,"WD_ST+_RT+_PC-",1,0,0,0,3,2.01703333333333,1.02875555819209,47,60,1
"315",4021,55,1,1,1,6,0,"WD_ST+_RT-_PC+",1,1,1,0,4,1.46726315789474,0.356950947368421,41,57,1
"316",4021,55,1,1,1,6,0,"WD_ST+_RT-_PC-",1,1,0,0,5,1.49631666666667,0.227638830225989,47,60,1
"317",4021,55,1,1,1,6,0,"WD_ST-_RT+_PC+",0,0,1,0,6,1.06035,0.0527699940677966,45,60,1
"318",4021,55,1,1,1,6,0,"WD_ST-_RT+_PC-",0,0,0,0,8,1.18998333333333,0.283348084463277,40,60,1
"319",4021,55,1,1,1,6,0,"WD_ST-_RT-_PC+",0,1,1,0,7,0.890966666666667,0.0645413209039548,58,60,1
"320",4021,55,1,1,1,6,0,"WD_ST-_RT-_PC-",0,1,0,0,1,1.50115,0.171690333050847,49,60,1
"321",4022,38,1,1,1,8,1,"SP_ST+_RT+_PC+",1,0,1,1,4,1.02788333333333,0.100641833615819,56,60,1
"322",4022,38,1,1,1,8,1,"SP_ST+_RT+_PC-",1,0,0,1,2,1.09936666666667,0.0809611514124294,47,60,1
"323",4022,38,1,1,1,8,1,"SP_ST+_RT-_PC+",1,1,1,1,5,0.8382,0.0783327050847458,54,60,1
"324",4022,38,1,1,1,8,1,"SP_ST-_RT+_PC+",0,0,1,1,3,0.766216666666667,0.0238707149717514,52,60,1
"325",4022,38,1,1,1,8,1,"SP_ST-_RT+_PC-",0,0,0,1,1,0.991916666666667,0.0529859081920904,44,60,1
"326",4022,38,1,1,1,8,1,"SP_ST-_RT-_PC+",0,1,1,1,6,0.74205,0.0260600483050847,54,60,1
"327",4022,38,1,1,1,8,1,"SP_ST-_RT-_PC-",0,1,0,1,8,0.831483333333333,0.047769338700565,39,60,1
"328",4022,38,1,1,1,8,1,"WD_ST+_RT+_PC+",1,0,1,0,6,1.14938333333333,0.133824613276836,60,60,1
"329",4022,38,1,1,1,8,1,"WD_ST+_RT+_PC-",1,0,0,0,2,1.2923,0.29736733220339,59,60,1
"330",4022,38,1,1,1,8,1,"WD_ST+_RT-_PC+",1,1,1,0,3,1.17871186440678,0.207815346580947,59,59,1
"331",4022,38,1,1,1,8,1,"WD_ST+_RT-_PC-",1,1,0,0,1,1.31222807017544,0.184809214912281,46,57,1
"332",4022,38,1,1,1,8,1,"WD_ST-_RT+_PC+",0,0,1,0,4,0.840916666666667,0.0470364505649718,56,60,1
"333",4022,38,1,1,1,8,1,"WD_ST-_RT-_PC+",0,1,1,0,5,0.84715,0.0676085025423729,55,60,1
"334",4022,38,1,1,1,8,1,"WD_ST-_RT-_PC-",0,1,0,0,8,0.877066666666667,0.0715294531073446,54,60,1
"335",4023,57,7,2,1,4,0,"SP_ST+_RT+_PC+",1,0,1,1,6,1.45873333333333,0.395219859887006,48,60,1
"336",4023,57,7,2,1,4,0,"SP_ST+_RT+_PC-",1,0,0,1,4,1.8359,0.586681955932203,36,60,1
"337",4023,57,7,2,1,4,0,"SP_ST+_RT-_PC+",1,1,1,1,3,1.628125,0.269071784090909,43,56,1
"338",4023,57,7,2,1,4,0,"SP_ST+_RT-_PC-",1,1,0,1,1,1.69287755102041,0.177072234693878,24,49,1
"339",4023,57,7,2,1,4,0,"SP_ST-_RT+_PC+",0,0,1,1,7,1.45425,0.350143139830508,54,60,1
"340",4023,57,7,2,1,4,0,"SP_ST-_RT+_PC-",0,0,0,1,2,1.89711666666667,0.371891664124294,44,60,1
"341",4023,57,7,2,1,4,0,"SP_ST-_RT-_PC+",0,1,1,1,8,1.60335714285714,0.326028597402597,44,56,1
"342",4023,57,7,2,1,4,0,"SP_ST-_RT-_PC-",0,1,0,1,5,1.69125423728814,0.232539572180012,40,59,1
"343",4023,57,7,2,1,4,0,"WD_ST+_RT+_PC+",1,0,1,0,8,1.73186666666667,0.732801303954802,57,60,1
"344",4023,57,7,2,1,4,0,"WD_ST+_RT+_PC-",1,0,0,0,1,1.91841666666667,0.492764416666667,48,60,1
"345",4023,57,7,2,1,4,0,"WD_ST+_RT-_PC+",1,1,1,0,3,1.45986666666667,0.204349676836158,55,60,1
"346",4023,57,7,2,1,4,0,"WD_ST+_RT-_PC-",1,1,0,0,5,1.90684210526316,0.29373609962406,51,57,1
"347",4023,57,7,2,1,4,0,"WD_ST-_RT+_PC+",0,0,1,0,6,1.30868333333333,0.0636031014124294,60,60,1
"348",4023,57,7,2,1,4,0,"WD_ST-_RT+_PC-",0,0,0,0,4,1.69308333333333,0.434683365819209,50,60,1
"349",4023,57,7,2,1,4,0,"WD_ST-_RT-_PC+",0,1,1,0,7,1.40136666666667,0.12326135480226,53,60,1
"350",4023,57,7,2,1,4,0,"WD_ST-_RT-_PC-",0,1,0,0,2,1.74539622641509,0.261580282293179,42,53,1
"351",4024,30,1,1,1,5,0,"SP_ST+_RT-_PC+",1,1,1,1,3,1.28321666666667,0.147882274293785,59,60,1
"352",4024,30,1,1,1,5,0,"SP_ST+_RT-_PC-",1,1,0,1,1,1.2944,0.162941430508475,50,60,1
"353",4024,30,1,1,1,5,0,"SP_ST-_RT+_PC+",0,0,1,1,7,1.03008333333333,0.0934022810734463,57,60,1
"354",4024,30,1,1,1,5,0,"SP_ST-_RT+_PC-",0,0,0,1,2,1.29735,0.645816333050847,54,60,1
"355",4024,30,1,1,1,5,0,"SP_ST-_RT-_PC+",0,1,1,1,8,1.16254237288136,0.285371907656341,54,59,1
"356",4024,30,1,1,1,5,0,"WD_ST+_RT+_PC+",1,0,1,0,8,1.1838,0.238035518644068,60,60,1
"357",4024,30,1,1,1,5,0,"WD_ST+_RT+_PC-",1,0,0,0,1,1.57383333333333,0.339818988700565,60,60,1
"358",4024,30,1,1,1,5,0,"WD_ST+_RT-_PC+",1,1,1,0,3,1.34183050847458,0.182448419053185,59,59,1
"359",4024,30,1,1,1,5,0,"WD_ST-_RT-_PC+",0,1,1,0,7,1.07431666666667,0.171118999717514,57,60,1
"360",4024,30,1,1,1,5,0,"WD_ST-_RT-_PC-",0,1,0,0,2,0.941366666666667,0.0669382700564972,60,60,1
"361",4025,64,3,1,1,7,0,"SP_ST+_RT+_PC+",1,0,1,1,7,1.4934,0.304005294915254,55,60,1
"362",4025,64,3,1,1,7,0,"SP_ST+_RT-_PC+",1,1,1,1,6,1.6359,0.337930633898305,60,60,1
"363",4025,64,3,1,1,7,0,"SP_ST+_RT-_PC-",1,1,0,1,3,1.54159322033898,0.336667693746347,49,59,1
"364",4025,64,3,1,1,7,0,"SP_ST-_RT+_PC+",0,0,1,1,4,1.20691666666667,0.192224857344633,50,60,1
"365",4025,64,3,1,1,7,0,"SP_ST-_RT+_PC-",0,0,0,1,8,1.25598333333333,0.163203203107345,46,60,1
"366",4025,64,3,1,1,7,0,"SP_ST-_RT-_PC+",0,1,1,1,2,1.5246724137931,0.186100083787054,34,58,1
"367",4025,64,3,1,1,7,0,"SP_ST-_RT-_PC-",0,1,0,1,5,1.32838333333333,0.204132782768362,47,60,1
"368",4025,64,3,1,1,7,0,"WD_ST+_RT+_PC+",1,0,1,0,2,1.73243333333333,1.00480319887006,53,60,1
"369",4025,64,3,1,1,7,0,"WD_ST+_RT+_PC-",1,0,0,0,3,1.77998333333333,0.540575203107345,55,60,1
"370",4025,64,3,1,1,7,0,"WD_ST+_RT-_PC+",1,1,1,0,4,1.5380350877193,0.466859105889724,55,57,1
"371",4025,64,3,1,1,7,0,"WD_ST+_RT-_PC-",1,1,0,0,5,1.93646428571429,0.352311671428571,54,56,1
"372",4025,64,3,1,1,7,0,"WD_ST-_RT+_PC+",0,0,1,0,6,1.02395,0.0977239466101695,57,60,1
"373",4025,64,3,1,1,7,0,"WD_ST-_RT+_PC-",0,0,0,0,8,1.20371666666667,0.132259494632768,59,60,1
"374",4025,64,3,1,1,7,0,"WD_ST-_RT-_PC+",0,1,1,0,7,0.975533333333333,0.106484693785311,58,60,1
"375",4026,45,1,1,2,NA,NA,"SP_ST+_RT+_PC+",1,0,1,1,8,1.07411666666667,0.101697121751412,60,60,1
"376",4026,45,1,1,2,NA,NA,"WD_ST+_RT-_PC-",1,1,0,0,7,1.16166666666667,0.0656594124293785,60,60,1
"377",4026,45,1,1,2,NA,NA,"WD_ST-_RT+_PC+",0,0,1,0,6,0.981483333333333,0.0457359149717514,60,60,1
"378",4026,45,1,1,2,NA,NA,"WD_ST-_RT+_PC-",0,0,0,0,2,1.56306896551724,0.419399644283122,57,58,1
"379",4026,45,1,1,2,NA,NA,"SP_ST+_RT+_PC-",1,0,0,1,1,2.02601666666667,1.25086916920904,58,60,1
"380",4026,45,1,1,2,NA,NA,"SP_ST+_RT-_PC+",1,1,1,1,6,1.22615,0.138548197457627,56,60,1
"381",4026,45,1,1,2,NA,NA,"SP_ST+_RT-_PC-",1,1,0,1,2,1.31216666666667,0.250979531073446,58,60,1
"382",4026,45,1,1,2,NA,NA,"SP_ST-_RT+_PC+",0,0,1,1,5,1.17686666666667,0.10787621920904,56,60,1
"383",4026,45,1,1,2,NA,NA,"SP_ST-_RT+_PC-",0,0,0,1,4,1.21218333333333,0.0950196098870057,58,60,1
"384",4026,45,1,1,2,NA,NA,"SP_ST-_RT-_PC+",0,1,1,1,3,1.34506896551724,0.147188275862069,46,58,1
"385",4026,45,1,1,2,NA,NA,"SP_ST-_RT-_PC-",0,1,0,1,7,1.04906666666667,0.0498903344632768,59,60,1
"386",4026,45,1,1,2,NA,NA,"WD_ST+_RT+_PC+",1,0,1,0,5,1.42706666666667,0.208259317514124,58,60,1
"387",4026,45,1,1,2,NA,NA,"WD_ST+_RT+_PC-",1,0,0,0,1,2.16076666666667,0.530284148022599,59,60,1
"388",4026,45,1,1,2,NA,NA,"WD_ST+_RT-_PC+",1,1,1,0,3,1.34993220338983,0.142488719462303,58,59,1
"389",4026,45,1,1,2,NA,NA,"WD_ST-_RT-_PC-",0,1,0,0,4,0.995633333333333,0.0323211853107345,59,60,1
"390",4026,45,1,1,2,NA,NA,"WD_ST-_RT-_PC+",0,1,1,0,8,1.0861,0.0362801254237288,60,60,1
"391",4027,32,6,1,1,6,0,"WD_ST+_RT-_PC-",1,1,0,0,1,1.32505172413793,0.256342681488203,50,58,1
"392",4027,32,6,1,1,6,0,"WD_ST-_RT+_PC-",0,0,0,0,7,1.13761666666667,0.215831562429379,56,60,1
"393",4027,32,6,1,1,6,0,"WD_ST-_RT-_PC+",0,1,1,0,5,0.93395,0.109995777118644,51,60,1
"394",4027,32,6,1,1,6,0,"SP_ST+_RT+_PC-",1,0,0,1,2,0.9728,0.0889730779661017,45,60,1
"395",4027,32,6,1,1,6,0,"SP_ST+_RT-_PC+",1,1,1,1,5,0.94265,0.0854627059322034,46,60,1
"396",4027,32,6,1,1,6,0,"SP_ST+_RT-_PC-",1,1,0,1,7,0.987864406779661,0.123593843366452,42,59,1
"397",4027,32,6,1,1,6,0,"SP_ST-_RT+_PC+",0,0,1,1,3,0.827433333333333,0.088935809039548,50,60,1
"398",4027,32,6,1,1,6,0,"SP_ST-_RT+_PC-",0,0,0,1,1,1.03128333333333,0.145294477683616,39,60,1
"399",4027,32,6,1,1,6,0,"SP_ST-_RT-_PC+",0,1,1,1,6,0.87875,0.0762891737288136,47,60,1
"400",4027,32,6,1,1,6,0,"SP_ST-_RT-_PC-",0,1,0,1,8,0.8643,0.150653094915254,36,60,1
"401",4027,32,6,1,1,6,0,"WD_ST+_RT+_PC+",1,0,1,0,6,1.11561666666667,0.153889087853107,53,60,1
"402",4027,32,6,1,1,6,0,"WD_ST+_RT+_PC-",1,0,0,0,2,0.971516666666667,0.0517539149717514,55,60,1
"403",4027,32,6,1,1,6,0,"WD_ST+_RT-_PC+",1,1,1,0,3,1.10841509433962,0.150574478229318,46,53,1
"404",4027,32,6,1,1,6,0,"WD_ST-_RT-_PC-",0,1,0,0,8,1.25226,0.339239339183673,47,50,1
"405",4028,48,1,1,2,9,1,"WD_ST+_RT-_PC-",1,1,0,0,1,1.45163793103448,0.136034550816697,58,58,1
"406",4028,48,1,1,2,9,1,"WD_ST-_RT+_PC+",0,0,1,0,4,1.04988333333333,0.116611257344633,55,60,1
"407",4028,48,1,1,2,9,1,"WD_ST-_RT+_PC-",0,0,0,0,7,1.09576666666667,0.10984848700565,54,60,1
"408",4028,48,1,1,2,9,1,"SP_ST+_RT+_PC+",1,0,1,1,4,1.1724,0.229864345762712,52,60,1
"409",4028,48,1,1,2,9,1,"SP_ST+_RT+_PC-",1,0,0,1,2,1.10476666666667,0.0575881141242938,57,60,1
"410",4028,48,1,1,2,9,1,"SP_ST+_RT-_PC+",1,1,1,1,5,1.08698333333333,0.0732982878531074,58,60,1
"411",4028,48,1,1,2,9,1,"SP_ST+_RT-_PC-",1,1,0,1,7,1.06275,0.0306898516949153,54,60,1
"412",4028,48,1,1,2,9,1,"SP_ST-_RT+_PC+",0,0,1,1,3,1.20156666666667,0.200301232768362,38,60,1
"413",4028,48,1,1,2,9,1,"SP_ST-_RT+_PC-",0,0,0,1,1,1.24025,0.142797919491525,55,60,1
"414",4028,48,1,1,2,9,1,"SP_ST-_RT-_PC+",0,1,1,1,6,0.97165,0.0751051466101695,51,60,1
"415",4028,48,1,1,2,9,1,"WD_ST+_RT+_PC+",1,0,1,0,6,1.16363333333333,0.121387727683616,59,60,1
"416",4028,48,1,1,2,9,1,"WD_ST+_RT+_PC-",1,0,0,0,2,1.20850847457627,0.0805165645821157,58,59,1
"417",4028,48,1,1,2,9,1,"WD_ST+_RT-_PC+",1,1,1,0,3,1.30328813559322,0.170784174167154,56,59,1
"418",4028,48,1,1,2,9,1,"WD_ST-_RT-_PC+",0,1,1,0,5,0.986833333333333,0.0559775310734463,58,60,1
"419",4029,46,1,1,1,4,1,"WD_ST+_RT-_PC+",1,1,1,0,3,1.13628070175439,0.22881149122807,56,57,1
"420",4029,46,1,1,1,4,1,"WD_ST+_RT-_PC-",1,1,0,0,5,1.33885,0.282497960169492,58,60,1
"421",4029,46,1,1,1,4,1,"SP_ST+_RT+_PC+",1,0,1,1,6,1.09935,0.220639112711864,57,60,1
"422",4029,46,1,1,1,4,1,"SP_ST+_RT+_PC-",1,0,0,1,4,1.08695,0.169627065254237,51,60,1
"423",4029,46,1,1,1,4,1,"SP_ST+_RT-_PC+",1,1,1,1,3,1.25818965517241,0.257605138838475,49,58,1
"424",4029,46,1,1,1,4,1,"SP_ST+_RT-_PC-",1,1,0,1,1,1.39971929824561,0.258368384085213,46,57,1
"425",4029,46,1,1,1,4,1,"SP_ST-_RT+_PC+",0,0,1,1,7,0.98905,0.124114827966102,57,60,1
"426",4029,46,1,1,1,4,1,"SP_ST-_RT+_PC-",0,0,0,1,2,1.32565,0.333486977118644,54,60,1
"427",4029,46,1,1,1,4,1,"SP_ST-_RT-_PC+",0,1,1,1,8,1.03815,0.163306299152542,52,60,1
"428",4029,46,1,1,1,4,1,"SP_ST-_RT-_PC-",0,1,0,1,5,1.0534,0.13038166779661,51,60,1
"429",4029,46,1,1,1,4,1,"WD_ST+_RT+_PC+",1,0,1,0,8,1.18493333333333,0.253790673446328,59,60,1
"430",4029,46,1,1,1,4,1,"WD_ST+_RT+_PC-",1,0,0,0,1,1.41853333333333,0.400913914124294,58,60,1
"431",4029,46,1,1,1,4,1,"WD_ST-_RT+_PC-",0,0,0,0,4,0.979066666666667,0.0930089785310735,60,60,1
"432",4029,46,1,1,1,4,1,"WD_ST-_RT-_PC+",0,1,1,0,7,1.00996610169492,0.19023530917592,56,59,1
"433",4029,46,1,1,1,4,1,"WD_ST-_RT-_PC-",0,1,0,0,2,0.975474576271186,0.0642750812390415,57,59,1
"434",4029,46,1,1,1,4,1,"WD_ST-_RT+_PC+",0,0,1,0,6,0.945983333333333,0.180257338700565,60,60,1
"435",4030,54,1,1,1,8,0,"SP_ST-_RT-_PC+",0,1,1,1,6,1.22166101694915,0.1466127106955,47,59,1
"436",4030,54,1,1,1,8,0,"SP_ST-_RT-_PC-",0,1,0,1,8,1.10433333333333,0.094548395480226,57,60,1
"437",4030,54,1,1,1,8,0,"WD_ST+_RT+_PC+",1,0,1,0,6,1.40408333333333,0.374961603107345,55,60,1
"438",4030,54,1,1,1,8,0,"SP_ST+_RT+_PC+",1,0,1,1,4,1.353,0.39010213559322,56,60,1
"439",4030,54,1,1,1,8,0,"SP_ST+_RT+_PC-",1,0,0,1,2,1.23566666666667,0.169358395480226,47,60,1
"440",4030,54,1,1,1,8,0,"SP_ST+_RT-_PC+",1,1,1,1,5,1.22441666666667,0.181893365819209,45,60,1
"441",4030,54,1,1,1,8,0,"SP_ST+_RT-_PC-",1,1,0,1,7,1.0773,0.0826923491525424,56,60,1
"442",4030,54,1,1,1,8,0,"SP_ST-_RT+_PC+",0,0,1,1,3,1.02071666666667,0.0655446471751412,49,60,1
"443",4030,54,1,1,1,8,0,"SP_ST-_RT+_PC-",0,0,0,1,1,1.24703333333333,0.31577349039548,49,60,1
"444",4030,54,1,1,1,8,0,"WD_ST+_RT-_PC+",1,1,1,0,3,1.03813333333333,0.0765700158192091,57,60,1
"445",4030,54,1,1,1,8,0,"WD_ST+_RT-_PC-",1,1,0,0,1,1.27683050847458,0.145915143191116,55,59,1
"446",4030,54,1,1,1,8,0,"WD_ST-_RT+_PC+",0,0,1,0,4,1.10036666666667,0.0770355920903955,50,60,1
"447",4030,54,1,1,1,8,0,"WD_ST+_RT+_PC-",1,0,0,0,2,1.44562711864407,0.258284168907072,57,59,1
"448",4030,54,1,1,1,8,0,"WD_ST-_RT-_PC+",0,1,1,0,5,1.25101666666667,0.140734050564972,55,60,1
"449",4030,54,1,1,1,8,0,"WD_ST-_RT-_PC-",0,1,0,0,8,1.03838333333333,0.080864952259887,56,60,1
"450",4030,54,1,1,1,8,0,"WD_ST-_RT+_PC-",0,0,0,0,7,1.04128333333333,0.145019698022599,57,60,1
"451",4031,75,1,1,1,3,1,"WD_ST+_RT-_PC+",1,1,1,0,3,1.5275,0.254917236363636,50,56,1
"452",4031,75,1,1,1,3,1,"SP_ST-_RT-_PC-",0,1,0,1,5,1.22366037735849,0.0900265362844702,37,53,1
"453",4031,75,1,1,1,3,1,"WD_ST+_RT+_PC+",1,0,1,0,8,2.03637209302326,2.09938314396456,35,43,1
"454",4031,75,1,1,1,3,1,"SP_ST+_RT+_PC+",1,0,1,1,6,1.419,0.286554983050847,45,60,1
"455",4031,75,1,1,1,3,1,"SP_ST+_RT-_PC+",1,1,1,1,3,1.55496363636364,0.173732776430976,43,55,1
"456",4031,75,1,1,1,3,1,"SP_ST-_RT+_PC+",0,0,1,1,7,1.3885,0.17879293220339,46,60,1
"457",4031,75,1,1,1,3,1,"SP_ST-_RT+_PC-",0,0,0,1,2,1.84673333333333,0.716274605649718,45,60,1
"458",4031,75,1,1,1,3,1,"WD_ST-_RT-_PC+",0,1,1,0,7,1.10286666666667,0.103457134463277,56,60,1
"459",4031,75,1,1,1,3,1,"WD_ST-_RT-_PC-",0,1,0,0,2,1.515125,0.245552802272727,51,56,1
"460",4031,75,1,1,1,3,1,"WD_ST+_RT-_PC-",1,1,0,0,5,1.59581818181818,0.181330855218855,52,55,1
"461",4031,75,1,1,1,3,1,"WD_ST-_RT+_PC+",0,0,1,0,6,1.2142,0.652658298305085,55,60,1
"462",4032,65,1,1,1,8,0,"SP_ST-_RT-_PC-",0,1,0,1,5,1.31521666666667,0.100033121751412,41,60,1
"463",4032,65,1,1,1,8,0,"WD_ST+_RT+_PC+",1,0,1,0,2,1.77795,0.724845234745763,54,60,1
"464",4032,65,1,1,1,8,0,"SP_ST+_RT+_PC+",1,0,1,1,7,1.55518333333333,0.198205203107345,51,60,1
"465",4032,65,1,1,1,8,0,"SP_ST+_RT+_PC-",1,0,0,1,1,1.37293333333333,0.298266775141243,37,60,1
"466",4032,65,1,1,1,8,0,"SP_ST+_RT-_PC+",1,1,1,1,6,1.40245,0.128581539830508,50,60,1
"467",4032,65,1,1,1,8,0,"SP_ST+_RT-_PC-",1,1,0,1,3,1.31010344827586,0.133344655777374,46,58,1
"468",4032,65,1,1,1,8,0,"SP_ST-_RT+_PC+",0,0,1,1,4,1.34823333333333,0.158576181920904,47,60,1
"469",4032,65,1,1,1,8,0,"SP_ST-_RT+_PC-",0,0,0,1,8,1.37825,0.110618563559322,50,60,1
"470",4032,65,1,1,1,8,0,"SP_ST-_RT-_PC+",0,1,1,1,2,1.436,0.182278551724138,39,59,1
"471",4032,65,1,1,1,8,0,"WD_ST+_RT-_PC+",1,1,1,0,4,1.52405172413793,0.267958120084694,53,58,1
"472",4032,65,1,1,1,8,0,"WD_ST+_RT-_PC-",1,1,0,0,5,1.71086206896552,0.237617805202662,54,58,1
"473",4032,65,1,1,1,8,0,"WD_ST-_RT+_PC+",0,0,1,0,6,1.13676666666667,0.0658511310734463,57,60,1
"474",4032,65,1,1,1,8,0,"WD_ST+_RT+_PC-",1,0,0,0,3,1.9798,0.711663315254237,53,60,1
"475",4032,65,1,1,1,8,0,"WD_ST-_RT-_PC+",0,1,1,0,7,1.22430508474576,0.0835271811805961,57,59,1
"476",4032,65,1,1,1,8,0,"WD_ST-_RT+_PC-",0,0,0,0,8,1.45773333333333,0.0778070124293785,57,60,1
"477",4033,56,1,1,1,6,1,"SP_ST-_RT-_PC+",0,1,1,1,8,1.21898333333333,0.206353101412429,51,60,1
"478",4033,56,1,1,1,6,1,"SP_ST-_RT-_PC-",0,1,0,1,5,1.40338983050847,0.263190862653419,50,59,1
"479",4033,56,1,1,1,6,1,"SP_ST-_RT+_PC-",0,0,0,1,2,1.5001,0.229438803389831,45,60,1
"480",4033,56,1,1,1,6,1,"SP_ST+_RT+_PC-",1,0,0,1,4,1.43526666666667,0.161985249717514,54,60,1
"481",4033,56,1,1,1,6,1,"SP_ST+_RT-_PC+",1,1,1,1,3,1.50318644067797,0.159923671537113,48,59,1
"482",4033,56,1,1,1,6,1,"SP_ST+_RT-_PC-",1,1,0,1,1,1.55001818181818,0.193122795959596,47,55,1
"483",4033,56,1,1,1,6,1,"SP_ST-_RT+_PC+",0,0,1,1,7,1.35751666666667,0.333570592937853,51,60,1
"484",4033,56,1,1,1,6,1,"WD_ST+_RT+_PC-",1,0,0,0,1,1.45786666666667,0.237355914124294,58,60,1
"485",4033,56,1,1,1,6,1,"WD_ST+_RT-_PC+",1,1,1,0,3,1.38378333333333,0.173138681073446,59,60,1
"486",4033,56,1,1,1,6,1,"WD_ST+_RT-_PC-",1,1,0,0,5,1.59729824561403,0.253137498746867,56,57,1
"487",4033,56,1,1,1,6,1,"WD_ST+_RT+_PC+",1,0,1,0,8,1.50571666666667,0.200565596327684,60,60,1
"488",4033,56,1,1,1,6,1,"WD_ST-_RT-_PC+",0,1,1,0,7,1.14478333333333,0.230330850564972,58,60,1
"489",4033,56,1,1,1,6,1,"WD_ST-_RT-_PC-",0,1,0,0,2,1.25294915254237,0.148941428404442,56,59,1
"490",4033,56,1,1,1,6,1,"WD_ST-_RT+_PC-",0,0,0,0,4,1.5694,0.477078820338983,59,60,1
"491",4034,62,1,1,2,8,1,"SP_ST-_RT-_PC-",0,1,0,1,5,1.30563333333333,0.102135049717514,46,60,1
"492",4034,62,1,1,2,8,1,"SP_ST-_RT+_PC-",0,0,0,1,2,1.41491666666667,0.202981026836158,42,60,1
"493",4034,62,1,1,2,8,1,"SP_ST-_RT-_PC+",0,1,1,1,8,1.1362,0.0401157559322034,51,60,1
"494",4034,62,1,1,2,8,1,"WD_ST-_RT-_PC-",0,1,0,0,2,1.6081,0.170810362711864,44,60,1
"495",4034,62,1,1,2,8,1,"SP_ST+_RT+_PC-",1,0,0,1,4,1.7425,0.315929915254237,54,60,1
"496",4034,62,1,1,2,8,1,"SP_ST+_RT-_PC+",1,1,1,1,3,1.58194915254237,0.243666255990649,51,59,1
"497",4034,62,1,1,2,8,1,"SP_ST+_RT-_PC-",1,1,0,1,1,1.56610344827586,0.204401111917725,40,58,1
"498",4034,62,1,1,2,8,1,"SP_ST-_RT+_PC+",0,0,1,1,7,1.20285,0.069549756779661,51,60,1
"499",4034,62,1,1,2,8,1,"WD_ST+_RT-_PC-",1,1,0,0,5,1.84106896551724,0.118939889897157,51,58,1
"500",4034,62,1,1,2,8,1,"WD_ST+_RT+_PC+",1,0,1,0,8,1.62621666666667,0.22922030819209,58,60,1
"501",4034,62,1,1,2,8,1,"WD_ST+_RT+_PC-",1,0,0,0,1,1.82448333333333,0.311232253954802,54,60,1
"502",4034,62,1,1,2,8,1,"WD_ST+_RT-_PC+",1,1,1,0,3,1.88173214285714,0.24698674512987,47,56,1
"503",4034,62,1,1,2,8,1,"SP_ST+_RT+_PC+",1,0,1,1,6,1.62091666666667,0.344765026836158,50,60,1
"504",4034,62,1,1,2,8,1,"WD_ST-_RT+_PC+",0,0,1,0,6,1.42035593220339,0.0986566125073057,48,59,1
"505",4034,62,1,1,2,8,1,"WD_ST-_RT+_PC-",0,0,0,0,4,1.41793333333333,0.0888931141242938,48,60,1
"506",4034,62,1,1,2,8,1,"WD_ST-_RT-_PC+",0,1,1,0,7,1.4094,0.118672820338983,56,60,1
"507",4035,36,1,1,1,4,1,"SP_ST-_RT+_PC+",0,0,1,1,4,1.04908333333333,0.0632462471751412,55,60,1
"508",4035,36,1,1,1,4,1,"SP_ST+_RT+_PC+",1,0,1,1,7,1.20443333333333,0.128444283615819,59,60,1
"509",4035,36,1,1,1,4,1,"SP_ST+_RT+_PC-",1,0,0,1,1,1.55264912280702,0.69050951754386,37,57,1
"510",4035,36,1,1,1,4,1,"SP_ST+_RT-_PC+",1,1,1,1,6,1.16213333333333,0.0986202192090395,55,60,1
"511",4035,36,1,1,1,4,1,"SP_ST+_RT-_PC-",1,1,0,1,3,1.07455,0.0835696754237288,54,60,1
"512",4035,36,1,1,1,4,1,"WD_ST-_RT-_PC-",0,1,0,0,1,1.17680701754386,0.091574944235589,53,57,1
"513",4035,36,1,1,1,4,1,"SP_ST-_RT-_PC-",0,1,0,1,5,0.85805,0.0261282177966102,46,60,1
"514",4035,36,1,1,1,4,1,"WD_ST+_RT+_PC+",1,0,1,0,2,1.57906666666667,0.338765249717514,51,60,1
"515",4035,36,1,1,1,4,1,"SP_ST-_RT+_PC-",0,0,0,1,8,0.914733333333333,0.0567929446327684,54,60,1
"516",4035,36,1,1,1,4,1,"SP_ST-_RT-_PC+",0,1,1,1,2,1.0932,0.0909183661016949,51,60,1
"517",4035,36,1,1,1,4,1,"WD_ST+_RT-_PC-",1,1,0,0,5,1.18528333333333,0.116723698022599,57,60,1
"518",4035,36,1,1,1,4,1,"WD_ST-_RT+_PC+",0,0,1,0,6,0.946216666666667,0.0663926471751412,58,60,1
"519",4035,36,1,1,1,4,1,"WD_ST+_RT+_PC-",1,0,0,0,3,1.24663333333333,0.113228202259887,59,60,1
"520",4035,36,1,1,1,4,1,"WD_ST+_RT-_PC+",1,1,1,0,4,1.30052542372881,0.1571561157218,59,59,1
"521",4035,36,1,1,1,4,1,"WD_ST-_RT+_PC-",0,0,0,0,8,0.92975,0.0353539533898305,59,60,1
"522",4035,36,1,1,1,4,1,"WD_ST-_RT-_PC+",0,1,1,0,7,0.985433333333333,0.0394905548022599,60,60,1
"523",4036,69,1,1,1,8,1,"SP_ST+_RT+_PC+",1,0,1,1,6,1.23676666666667,0.274932588700565,38,60,1
"524",4036,69,1,1,1,8,1,"SP_ST+_RT+_PC-",1,0,0,1,4,1.02854237288136,0.0993915973115137,41,59,1
"525",4036,69,1,1,1,8,1,"WD_ST-_RT-_PC-",0,1,0,0,2,1.58134482758621,0.176999177253479,39,58,1
"526",4036,69,1,1,1,8,1,"SP_ST-_RT+_PC+",0,0,1,1,7,1.10668333333333,0.0704990336158192,44,60,1
"527",4036,69,1,1,1,8,1,"SP_ST-_RT+_PC-",0,0,0,1,2,1.19566666666667,0.120207514124294,35,60,1
"528",4036,69,1,1,1,8,1,"SP_ST+_RT-_PC+",1,1,1,1,3,1.19384482758621,0.135012308832426,45,58,1
"529",4036,69,1,1,1,8,1,"SP_ST+_RT-_PC-",1,1,0,1,1,1.36761016949153,0.203313793687902,41,59,1
"530",4036,69,1,1,1,8,1,"WD_ST+_RT+_PC-",1,0,0,0,1,1.49618333333333,0.136076423446328,48,60,1
"531",4036,69,1,1,1,8,1,"WD_ST+_RT-_PC+",1,1,1,0,3,1.40662711864407,0.217061306838106,41,59,1
"532",4036,69,1,1,1,8,1,"SP_ST-_RT-_PC+",0,1,1,1,8,0.999166666666667,0.065183802259887,46,60,1
"533",4036,69,1,1,1,8,1,"WD_ST+_RT+_PC+",1,0,1,0,8,1.29836666666667,0.374680032768362,52,60,1
"534",4036,69,1,1,1,8,1,"WD_ST-_RT-_PC+",0,1,1,0,7,1.26698305084746,0.143554913500877,46,59,1
"535",4036,69,1,1,1,8,1,"WD_ST-_RT+_PC+",0,0,1,0,6,1.53848333333333,0.294129677683616,43,60,1
"536",4036,69,1,1,1,8,1,"WD_ST-_RT+_PC-",0,0,0,0,4,1.29476271186441,0.133308804792519,52,59,1
"537",4037,35,1,1,1,6,1,"SP_ST+_RT+_PC-",1,0,0,1,1,1.60975,0.473800190677966,55,60,1
"538",4037,35,1,1,1,6,1,"SP_ST+_RT+_PC+",1,0,1,1,7,1.22242372881356,0.256903282875511,56,59,1
"539",4037,35,1,1,1,6,1,"WD_ST-_RT+_PC-",0,0,0,0,8,0.75905,0.0172901161016949,59,60,1
"540",4037,35,1,1,1,6,1,"WD_ST-_RT-_PC+",0,1,1,0,7,0.866083333333333,0.0645004844632768,59,60,1
"541",4037,35,1,1,1,6,1,"SP_ST+_RT-_PC+",1,1,1,1,6,1.1475593220339,0.151471319696084,56,59,1
"542",4037,35,1,1,1,6,1,"SP_ST+_RT-_PC-",1,1,0,1,3,1.17646666666667,0.231492049717514,50,60,1
"543",4037,35,1,1,1,6,1,"SP_ST-_RT+_PC+",0,0,1,1,4,1.08775,0.187086665254237,54,60,1
"544",4037,35,1,1,1,6,1,"SP_ST-_RT+_PC-",0,0,0,1,8,1.15795,0.19203828559322,49,60,1
"545",4037,35,1,1,1,6,1,"SP_ST-_RT-_PC+",0,1,1,1,2,1.57359649122807,0.372713887844612,51,57,1
"546",4037,35,1,1,1,6,1,"SP_ST-_RT-_PC-",0,1,0,1,5,1.12895,0.159671404237288,44,60,1
"547",4037,35,1,1,1,6,1,"WD_ST+_RT+_PC+",1,0,1,0,2,1.61591666666667,0.444678789548023,59,60,1
"548",4037,35,1,1,1,6,1,"WD_ST+_RT+_PC-",1,0,0,0,3,1.2261,0.176117142372881,60,60,1
"549",4037,35,1,1,1,6,1,"WD_ST+_RT-_PC+",1,1,1,0,4,0.95015,0.0908128076271186,59,60,1
"550",4037,35,1,1,1,6,1,"WD_ST+_RT-_PC-",1,1,0,0,5,0.90828813559322,0.0535185879602572,59,59,1
"551",4037,35,1,1,1,6,1,"WD_ST-_RT+_PC+",0,0,1,0,6,0.834483333333333,0.034982931920904,58,60,1
"552",4037,35,1,1,1,6,1,"WD_ST-_RT-_PC-",0,1,0,0,1,1.27856666666667,0.168360724293785,53,60,1
"553",4038,49,1,1,1,5,0,"WD_ST+_RT+_PC-",1,0,0,0,1,1.51566666666667,0.179613717514124,55,60,1
"554",4038,49,1,1,1,5,0,"WD_ST+_RT-_PC+",1,1,1,0,3,1.33418644067797,0.155982602571596,57,59,1
"555",4038,49,1,1,1,5,0,"WD_ST+_RT-_PC-",1,1,0,0,5,1.46725423728814,0.123116158386908,58,59,1
"556",4038,49,1,1,1,5,0,"SP_ST+_RT+_PC+",1,0,1,1,6,1.30803333333333,0.324819625988701,55,60,1
"557",4038,49,1,1,1,5,0,"SP_ST+_RT+_PC-",1,0,0,1,4,1.5966,0.468533905084746,55,60,1
"558",4038,49,1,1,1,5,0,"SP_ST+_RT-_PC+",1,1,1,1,3,1.3243,0.227736823728814,47,60,1
"559",4038,49,1,1,1,5,0,"SP_ST+_RT-_PC-",1,1,0,1,1,1.56242857142857,0.219650503896104,41,56,1
"560",4038,49,1,1,1,5,0,"SP_ST-_RT+_PC+",0,0,1,1,7,1.10928333333333,0.080982952259887,52,60,1
"561",4038,49,1,1,1,5,0,"SP_ST-_RT+_PC-",0,0,0,1,2,1.27978333333333,0.219577799717514,40,60,1
"562",4038,49,1,1,1,5,0,"SP_ST-_RT-_PC+",0,1,1,1,8,1.2004,0.0930037355932203,48,60,1
"563",4038,49,1,1,1,5,0,"SP_ST-_RT-_PC-",0,1,0,1,5,1.1998,0.145933247457627,49,60,1
"564",4038,49,1,1,1,5,0,"WD_ST+_RT+_PC+",1,0,1,0,8,1.41048333333333,0.215365982768362,59,60,1
"565",4038,49,1,1,1,5,0,"WD_ST-_RT+_PC-",0,0,0,0,4,1.3726,0.0990109559322034,51,60,1
"566",4038,49,1,1,1,5,0,"WD_ST-_RT-_PC+",0,1,1,0,7,1.20515254237288,0.0980244418468732,58,59,1
"567",4038,49,1,1,1,5,0,"WD_ST-_RT-_PC-",0,1,0,0,2,1.31233333333333,0.0727609039548023,49,60,1
"568",4038,49,1,1,1,5,0,"WD_ST-_RT+_PC+",0,0,1,0,6,1.2656,0.0847058372881356,58,60,1
"569",4040,47,1,1,1,8,0,"SP_ST-_RT-_PC-",0,1,0,1,8,1.0706,0.0538993966101695,45,60,1
"570",4040,47,1,1,1,8,0,"WD_ST+_RT+_PC+",1,0,1,0,6,1.55563333333333,0.773778744632768,59,60,1
"571",4040,47,1,1,1,8,0,"WD_ST+_RT+_PC-",1,0,0,0,2,1.71406666666667,0.265874029378531,56,60,1
"572",4040,47,1,1,1,8,0,"WD_ST-_RT-_PC+",0,1,1,0,5,1.0934406779661,0.197909905902981,59,59,1
"573",4040,47,1,1,1,8,0,"WD_ST-_RT-_PC-",0,1,0,0,8,1.04776666666667,0.0572531310734463,56,60,1
"574",4040,47,1,1,1,8,0,"SP_ST+_RT-_PC+",1,1,1,1,5,1.027,0.0778553898305085,52,60,1
"575",4040,47,1,1,1,8,0,"SP_ST+_RT-_PC-",1,1,0,1,7,1.16171186440678,0.128306863822326,46,59,1
"576",4040,47,1,1,1,8,0,"SP_ST-_RT+_PC+",0,0,1,1,3,1.1492,0.17115053559322,51,60,1
"577",4040,47,1,1,1,8,0,"SP_ST-_RT+_PC-",0,0,0,1,1,1.39081666666667,0.16738137259887,41,60,1
"578",4040,47,1,1,1,8,0,"SP_ST-_RT-_PC+",0,1,1,1,6,1.08444827586207,0.134969374470659,48,58,1
"579",4040,47,1,1,1,8,0,"WD_ST-_RT+_PC+",0,0,1,0,4,1.09538333333333,0.45924203700565,57,60,1
"580",4040,47,1,1,1,8,0,"WD_ST-_RT+_PC-",0,0,0,0,7,1.24485,0.142915960169492,60,60,1
"581",4040,47,1,1,1,8,0,"WD_ST+_RT-_PC+",1,1,1,0,3,1.49503389830508,0.154915171244886,53,59,1
"582",4040,47,1,1,1,8,0,"WD_ST+_RT-_PC-",1,1,0,0,1,1.68908474576271,0.296920734073641,55,59,1
"583",4040,47,1,1,1,8,0,"SP_ST+_RT+_PC+",1,0,1,1,4,1.27548333333333,0.129081338700565,50,60,1
"584",4040,47,1,1,1,8,0,"SP_ST+_RT+_PC-",1,0,0,1,2,1.50956666666667,0.289852351412429,44,60,1
"585",4041,77,1,1,1,4,1,"SP_ST-_RT+_PC-",0,0,0,1,8,1.50705,0.18927021779661,52,60,1
"586",4041,77,1,1,1,4,1,"SP_ST-_RT-_PC+",0,1,1,1,2,1.72414,0.199870694285714,38,50,1
"587",4041,77,1,1,1,4,1,"SP_ST+_RT+_PC+",1,0,1,1,7,1.74131666666667,0.359710050564972,53,60,1
"588",4041,77,1,1,1,4,1,"SP_ST+_RT+_PC-",1,0,0,1,1,1.85815254237288,0.676759372881356,47,59,1
"589",4041,77,1,1,1,4,1,"SP_ST+_RT-_PC+",1,1,1,1,6,1.59970175438596,0.17808914160401,50,57,1
"590",4041,77,1,1,1,4,1,"SP_ST+_RT-_PC-",1,1,0,1,3,1.6717962962963,0.190061787910552,42,54,1
"591",4041,77,1,1,1,4,1,"SP_ST-_RT+_PC+",0,0,1,1,4,1.54623728813559,0.263786873758036,44,59,1
"592",4041,77,1,1,1,4,1,"WD_ST+_RT+_PC+",1,0,1,0,2,2.1224,0.982516074576271,56,60,1
"593",4041,77,1,1,1,4,1,"WD_ST+_RT+_PC-",1,0,0,0,3,1.95838983050847,0.418092207481005,57,59,1
"594",4041,77,1,1,1,4,1,"WD_ST+_RT-_PC+",1,1,1,0,4,1.7470701754386,0.211419137844612,56,57,1
"595",4041,77,1,1,1,4,1,"SP_ST-_RT-_PC-",0,1,0,1,5,1.41945454545455,0.10404403030303,47,55,1
"596",4041,77,1,1,1,4,1,"WD_ST-_RT+_PC+",0,0,1,0,6,1.32326666666667,0.146996842937853,59,60,1
"597",4041,77,1,1,1,4,1,"WD_ST-_RT+_PC-",0,0,0,0,8,1.75376666666667,0.393473097175141,56,60,1
"598",4041,77,1,1,1,4,1,"WD_ST-_RT-_PC+",0,1,1,0,7,1.40468965517241,0.155940849364791,57,58,1
"599",4041,77,1,1,1,4,1,"WD_ST+_RT-_PC-",1,1,0,0,5,1.77250909090909,0.260616291582492,52,55,1
"600",4041,77,1,1,1,4,1,"WD_ST-_RT-_PC-",0,1,0,0,1,1.6241724137931,0.215879057471264,56,58,1
"601",4042,51,1,1,1,4,0,"WD_ST-_RT-_PC-",0,1,0,0,8,0.901683333333333,0.129877135310734,52,60,1
"602",4042,51,1,1,1,4,0,"SP_ST+_RT-_PC+",1,1,1,1,5,0.72645,0.0204837771186441,44,60,1
"603",4042,51,1,1,1,4,0,"SP_ST+_RT-_PC-",1,1,0,1,7,0.911183333333333,0.0425146607344633,46,60,1
"604",4042,51,1,1,1,4,0,"SP_ST+_RT+_PC+",1,0,1,1,4,1.18221666666667,0.321424681073446,47,60,1
"605",4042,51,1,1,1,4,0,"SP_ST+_RT+_PC-",1,0,0,1,2,1.22908333333333,0.521210043785311,42,60,1
"606",4042,51,1,1,1,4,0,"SP_ST-_RT-_PC+",0,1,1,1,6,0.95,0.110845050847458,42,60,1
"607",4042,51,1,1,1,4,0,"SP_ST-_RT-_PC-",0,1,0,1,8,0.97595,0.0584070991525424,43,60,1
"608",4042,51,1,1,1,4,0,"SP_ST-_RT+_PC+",0,0,1,1,3,0.82435,0.0558505703389831,42,60,1
"609",4042,51,1,1,1,4,0,"SP_ST-_RT+_PC-",0,0,0,1,1,1.09205,0.11441208220339,45,60,1
"610",4042,51,1,1,1,4,0,"WD_ST+_RT-_PC+",1,1,1,0,3,1.20141071428571,0.367956282792208,43,56,1
"611",4042,51,1,1,1,4,0,"WD_ST+_RT-_PC-",1,1,0,0,1,1.31322033898305,0.209561485096435,51,59,1
"612",4042,51,1,1,1,4,0,"WD_ST+_RT+_PC+",1,0,1,0,6,0.915766666666667,0.107693605649718,48,60,1
"613",4042,51,1,1,1,4,0,"WD_ST+_RT+_PC-",1,0,0,0,2,1.34022413793103,0.768665545372051,37,58,1
"614",4042,51,1,1,1,4,0,"WD_ST-_RT-_PC+",0,1,1,0,5,0.763316666666667,0.0155082539548023,58,60,1
"615",4042,51,1,1,1,4,0,"WD_ST-_RT+_PC+",0,0,1,0,4,0.9194,0.0304907525423729,54,60,1
"616",4042,51,1,1,1,4,0,"WD_ST-_RT+_PC-",0,0,0,0,7,0.683516666666667,0.0144028641242938,54,60,1
"617",4043,34,1,1,1,4,1,"SP_ST+_RT-_PC+",1,1,1,1,3,1.5003,0.188577094915254,43,60,1
"618",4043,34,1,1,1,4,1,"SP_ST+_RT+_PC-",1,0,0,1,4,1.35631666666667,0.0858036437853107,48,60,1
"619",4043,34,1,1,1,4,1,"SP_ST+_RT+_PC+",1,0,1,1,6,1.19551666666667,0.0945296437853107,47,60,1
"620",4043,34,1,1,1,4,1,"WD_ST+_RT+_PC-",1,0,0,0,1,1.49171666666667,0.170592545480226,54,60,1
"621",4043,34,1,1,1,4,1,"SP_ST+_RT-_PC-",1,1,0,1,1,1.58836206896552,0.266963147307925,43,58,1
"622",4043,34,1,1,1,4,1,"SP_ST-_RT-_PC+",0,1,1,1,8,0.927508771929825,0.0824599329573935,41,57,1
"623",4043,34,1,1,1,4,1,"WD_ST+_RT+_PC+",1,0,1,0,8,1.14661666666667,0.0834575624293785,59,60,1
"624",4043,34,1,1,1,4,1,"WD_ST+_RT-_PC+",1,1,1,0,3,1.44608333333333,0.170619942090395,57,60,1
"625",4043,34,1,1,1,4,1,"WD_ST-_RT+_PC+",0,0,1,0,6,0.91625,0.0307197838983051,57,60,1
"626",4043,34,1,1,1,4,1,"WD_ST-_RT+_PC-",0,0,0,0,4,0.957666666666667,0.0300087005649718,52,60,1
"627",4044,47,1,1,2,9,0,"SP_ST-_RT+_PC-",0,0,0,1,1,1.10445,0.21905801440678,41,60,1
"628",4044,47,1,1,2,9,0,"SP_ST+_RT+_PC+",1,0,1,1,4,1.13231666666667,0.176767847175141,39,60,1
"629",4044,47,1,1,2,9,0,"SP_ST+_RT+_PC-",1,0,0,1,2,1.28085,0.197486502542373,42,60,1
"630",4044,47,1,1,2,9,0,"SP_ST+_RT-_PC+",1,1,1,1,5,1.05036666666667,0.209853693785311,48,60,1
"631",4044,47,1,1,2,9,0,"SP_ST+_RT-_PC-",1,1,0,1,7,0.973166666666667,0.116851700564972,48,60,1
"632",4044,47,1,1,2,9,0,"SP_ST-_RT+_PC+",0,0,1,1,3,0.800266666666667,0.0617930124293785,50,60,1
"633",4044,47,1,1,2,9,0,"SP_ST-_RT-_PC-",0,1,0,1,8,0.854233333333333,0.0556437073446328,44,60,1
"634",4044,47,1,1,2,9,0,"WD_ST+_RT+_PC+",1,0,1,0,6,0.68455,0.0218139127118644,60,60,1
"635",4044,47,1,1,2,9,0,"WD_ST+_RT+_PC-",1,0,0,0,2,0.986366666666667,0.133352948022599,59,60,1
"636",4044,47,1,1,2,9,0,"SP_ST-_RT-_PC+",0,1,1,1,6,0.880383333333333,0.142001799717514,47,60,1
"637",4044,47,1,1,2,9,0,"WD_ST+_RT-_PC-",1,1,0,0,1,1.31434482758621,0.189559703569268,55,58,1
"638",4044,47,1,1,2,9,0,"WD_ST-_RT+_PC+",0,0,1,0,4,0.721266666666667,0.0385934531073446,58,60,1
"639",4044,47,1,1,2,9,0,"WD_ST-_RT+_PC-",0,0,0,0,7,0.721616666666667,0.13338596920904,59,60,1
"640",4044,47,1,1,2,9,0,"WD_ST+_RT-_PC+",1,1,1,0,3,0.96165,0.0602366042372881,58,60,1
"641",4044,47,1,1,2,9,0,"WD_ST-_RT-_PC-",0,1,0,0,8,0.681316666666667,0.0128885929378531,58,60,1
"642",4044,47,1,1,2,9,0,"WD_ST-_RT-_PC+",0,1,1,0,5,0.713566666666667,0.00863824971751412,60,60,1
"643",4045,51,1,1,2,NA,NA,"SP_ST+_RT+_PC-",1,0,0,1,1,1.52086666666667,0.289915880225989,42,60,1
"644",4045,51,1,1,2,NA,NA,"SP_ST+_RT-_PC+",1,1,1,1,6,1.31615,0.138071180508475,49,60,1
"645",4045,51,1,1,2,NA,NA,"SP_ST+_RT+_PC+",1,0,1,1,7,1.22405,0.0785536415254237,45,60,1
"646",4045,51,1,1,2,NA,NA,"SP_ST-_RT+_PC-",0,0,0,1,8,1.18546666666667,0.11356449039548,47,60,1
"647",4045,51,1,1,2,NA,NA,"SP_ST-_RT-_PC+",0,1,1,1,2,1.35896666666667,0.13226942259887,38,60,1
"648",4045,51,1,1,2,NA,NA,"SP_ST-_RT-_PC-",0,1,0,1,5,1.35506666666667,0.128885215819209,49,60,1
"649",4045,51,1,1,2,NA,NA,"WD_ST+_RT+_PC+",1,0,1,0,2,1.86948333333333,0.35094523700565,43,60,1
"650",4045,51,1,1,2,NA,NA,"WD_ST+_RT+_PC-",1,0,0,0,3,1.9349,0.434687583050847,54,60,1
"651",4045,51,1,1,2,NA,NA,"WD_ST+_RT-_PC+",1,1,1,0,4,1.57090566037736,0.221622702467344,44,53,1
"652",4045,51,1,1,2,NA,NA,"WD_ST+_RT-_PC-",1,1,0,0,5,1.58208474576271,0.188750389246055,54,59,1
"653",4045,51,1,1,2,NA,NA,"WD_ST-_RT+_PC+",0,0,1,0,6,1.50493333333333,0.274860809039548,50,60,1
"654",4045,51,1,1,2,NA,NA,"WD_ST-_RT+_PC-",0,0,0,0,8,1.59875,0.371441173728814,56,60,1
"655",4045,51,1,1,2,NA,NA,"WD_ST-_RT-_PC+",0,1,1,0,7,1.27874576271186,0.0939486066627703,58,59,1
"656",4045,51,1,1,2,NA,NA,"WD_ST-_RT-_PC-",0,1,0,0,1,1.90114285714286,0.203938742857143,41,56,1
"657",4045,51,1,1,2,NA,NA,"SP_ST+_RT-_PC-",1,1,0,1,3,1.53377966101695,0.128462381648159,44,59,1
"658",4045,51,1,1,2,NA,NA,"SP_ST-_RT+_PC+",0,0,1,1,4,1.33301666666667,0.131490118361582,46,60,1
"659",4046,53,1,1,2,6,0,"WD_ST-_RT+_PC+",0,0,1,0,6,1.30573333333333,0.128628334463277,49,60,1
"660",4046,53,1,1,2,6,0,"SP_ST+_RT+_PC+",1,0,1,1,7,1.40598333333333,0.17539344039548,50,60,1
"661",4046,53,1,1,2,6,0,"WD_ST+_RT-_PC-",1,1,0,0,5,1.52940677966102,0.134616038573933,57,59,1
"662",4046,53,1,1,2,6,0,"SP_ST+_RT-_PC+",1,1,1,1,6,1.40515,0.108441756779661,46,60,1
"663",4046,53,1,1,2,6,0,"SP_ST+_RT-_PC-",1,1,0,1,3,1.50058333333333,0.130690755649718,50,60,1
"664",4046,53,1,1,2,6,0,"WD_ST-_RT+_PC-",0,0,0,0,8,1.2028,0.0468668406779661,54,60,1
"665",4046,53,1,1,2,6,0,"SP_ST+_RT+_PC-",1,0,0,1,1,1.76875,0.512087038135593,47,60,1
"666",4046,53,1,1,2,6,0,"SP_ST-_RT-_PC+",0,1,1,1,2,1.48025423728814,0.166151572180012,39,59,1
"667",4046,53,1,1,2,6,0,"SP_ST-_RT-_PC-",0,1,0,1,5,1.2157,0.0628897389830508,50,60,1
"668",4046,53,1,1,2,6,0,"SP_ST-_RT+_PC+",0,0,1,1,4,1.41565,0.153076739830508,44,60,1
"669",4046,53,1,1,2,6,0,"SP_ST-_RT+_PC-",0,0,0,1,8,1.34505,0.0741397771186441,37,60,1
"670",4046,53,1,1,2,6,0,"WD_ST+_RT-_PC+",1,1,1,0,4,1.72486206896552,0.237482506957048,45,58,1
"671",4046,53,1,1,2,6,0,"WD_ST-_RT-_PC+",0,1,1,0,7,1.28405,0.106020455084746,51,60,1
"672",4046,53,1,1,2,6,0,"WD_ST+_RT+_PC+",1,0,1,0,2,1.95123333333333,0.366910453107345,52,60,1
"673",4046,53,1,1,2,6,0,"WD_ST+_RT+_PC-",1,0,0,0,3,1.64633333333333,0.179960768361582,54,60,1
"674",4046,53,1,1,2,6,0,"WD_ST-_RT-_PC-",0,1,0,0,1,1.6496724137931,0.154733838173019,50,58,1
"675",4047,52,1,1,1,8,1,"WD_ST+_RT+_PC+",1,0,1,0,6,1.28448333333333,0.360694728531073,58,60,1
"676",4047,52,1,1,1,8,1,"WD_ST+_RT+_PC-",1,0,0,0,2,1.26023333333333,0.265769944632768,56,60,1
"677",4047,52,1,1,1,8,1,"WD_ST+_RT-_PC+",1,1,1,0,3,0.918,0.0988224745762712,57,60,1
"678",4047,52,1,1,1,8,1,"WD_ST+_RT-_PC-",1,1,0,0,1,1.39033898305085,0.221205124488603,57,59,1
"679",4047,52,1,1,1,8,1,"SP_ST-_RT-_PC-",0,1,0,1,8,0.887916666666667,0.044341738700565,43,60,1
"680",4047,52,1,1,1,8,1,"SP_ST+_RT-_PC-",1,1,0,1,7,1.05964406779661,0.165185612507306,47,59,1
"681",4047,52,1,1,1,8,1,"WD_ST-_RT-_PC+",0,1,1,0,5,0.8925,0.0250407272727273,55,56,1
"682",4047,52,1,1,1,8,1,"WD_ST-_RT-_PC-",0,1,0,0,8,0.959666666666667,0.131367039548023,59,60,1
"683",4047,52,1,1,1,8,1,"SP_ST+_RT-_PC+",1,1,1,1,5,1.09443333333333,0.0749949615819209,44,60,1
"684",4047,52,1,1,1,8,1,"WD_ST-_RT+_PC+",0,0,1,0,4,0.9267,0.0769479084745763,53,60,1
"685",4047,52,1,1,1,8,1,"SP_ST-_RT+_PC+",0,0,1,1,3,0.868083333333333,0.0403171963276836,43,60,1
"686",4047,52,1,1,1,8,1,"SP_ST-_RT+_PC-",0,0,0,1,1,1.06321666666667,0.158632986158192,44,60,1
"687",4047,52,1,1,1,8,1,"SP_ST-_RT-_PC+",0,1,1,1,6,0.897466666666667,0.0683378463276836,53,60,1
"688",4047,52,1,1,1,8,1,"WD_ST-_RT+_PC-",0,0,0,0,7,0.866666666666667,0.132050395480226,59,60,1
"689",4047,52,1,1,1,8,1,"SP_ST+_RT+_PC+",1,0,1,1,4,1.15135,0.150004773728814,40,60,1
"690",4047,52,1,1,1,8,1,"SP_ST+_RT+_PC-",1,0,0,1,2,1.07561666666667,0.0856839014124294,45,60,1
"691",4048,48,1,1,1,8,1,"WD_ST+_RT+_PC-",1,0,0,0,2,1.3151,0.238493718644068,51,60,1
"692",4048,48,1,1,1,8,1,"SP_ST-_RT-_PC-",0,1,0,1,8,1.4349298245614,0.372714244987469,39,57,1
"693",4048,48,1,1,1,8,1,"SP_ST+_RT+_PC-",1,0,0,1,2,1.4175,0.441535779661017,38,60,1
"694",4048,48,1,1,1,8,1,"SP_ST+_RT-_PC+",1,1,1,1,5,1.37136206896552,0.30641690169389,52,58,1
"695",4048,48,1,1,1,8,1,"WD_ST+_RT-_PC+",1,1,1,0,3,1.79510344827586,0.277459217180883,51,58,1
"696",4048,48,1,1,1,8,1,"SP_ST+_RT+_PC+",1,0,1,1,4,1.3943,0.272052857627119,54,60,1
"697",4048,48,1,1,1,8,1,"SP_ST-_RT+_PC-",0,0,0,1,1,1.23866666666667,0.184281920903955,35,60,1
"698",4048,48,1,1,1,8,1,"WD_ST-_RT+_PC+",0,0,1,0,4,1.66403389830508,0.530716998831093,52,59,1
"699",4048,48,1,1,1,8,1,"SP_ST+_RT-_PC-",1,1,0,1,7,1.57725862068966,0.289159703871748,42,58,1
"700",4048,48,1,1,1,8,1,"SP_ST-_RT+_PC+",0,0,1,1,3,1.52725,0.459519478813559,41,60,1
"701",4048,48,1,1,1,8,1,"WD_ST+_RT-_PC-",1,1,0,0,1,1.61460714285714,0.29426337012987,37,56,1
"702",4048,48,1,1,1,8,1,"WD_ST-_RT+_PC-",0,0,0,0,7,1.52153333333333,0.281748015819209,53,60,1
"703",4048,48,1,1,1,8,1,"WD_ST-_RT-_PC+",0,1,1,0,5,1.32974576271186,0.220874330800701,51,59,1
"704",4048,48,1,1,1,8,1,"WD_ST-_RT-_PC-",0,1,0,0,8,1.38701694915254,0.16677532729398,52,59,1
"705",4049,45,1,1,2,9,1,"SP_ST-_RT-_PC+",0,1,1,1,3,0.94715,0.0500256550847458,51,60,1
"706",4049,45,1,1,2,9,1,"SP_ST+_RT+_PC+",1,0,1,1,8,1.25436666666667,0.297862880225989,53,60,1
"707",4049,45,1,1,2,9,1,"SP_ST+_RT+_PC-",1,0,0,1,1,1.43873333333333,0.266312402259887,52,60,1
"708",4049,45,1,1,2,9,1,"SP_ST-_RT-_PC-",0,1,0,1,7,0.987033333333333,0.0848953548022599,52,60,1
"709",4049,45,1,1,2,9,1,"SP_ST-_RT+_PC-",0,0,0,1,4,1.06168333333333,0.195632965819209,48,60,1
"710",4049,45,1,1,2,9,1,"SP_ST-_RT+_PC+",0,0,1,1,5,1.0388,0.0877315525423729,53,60,1
"711",4049,45,1,1,2,9,1,"WD_ST+_RT+_PC+",1,0,1,0,5,1.3688,0.272994874576271,57,60,1
"712",4049,45,1,1,2,9,1,"SP_ST+_RT-_PC+",1,1,1,1,6,1.32977586206897,0.177060492740472,53,58,1
"713",4049,45,1,1,2,9,1,"SP_ST+_RT-_PC-",1,1,0,1,2,1.27746551724138,0.158485867211131,41,58,1
"714",4049,45,1,1,2,9,1,"WD_ST+_RT-_PC-",1,1,0,0,7,1.39250847457627,0.155617530099357,54,59,1
"715",4049,45,1,1,2,9,1,"WD_ST-_RT+_PC+",0,0,1,0,6,1.2065,0.306625440677966,60,60,1
"716",4049,45,1,1,2,9,1,"WD_ST+_RT+_PC-",1,0,0,0,1,1.40311666666667,0.460246681073446,57,60,1
"717",4049,45,1,1,2,9,1,"WD_ST+_RT-_PC+",1,1,1,0,3,1.21393333333333,0.121237588700565,59,60,1
"718",4049,45,1,1,2,9,1,"WD_ST-_RT-_PC-",0,1,0,0,4,1.0736,0.0623770576271186,57,60,1
"719",4049,45,1,1,2,9,1,"WD_ST-_RT+_PC-",0,0,0,0,2,1.23871666666667,0.209668681073446,57,60,1
"720",4049,45,1,1,2,9,1,"WD_ST-_RT-_PC+",0,1,1,0,8,1.0692,0.121163518644068,58,60,1
"721",4050,66,1,1,2,7,1,"SP_ST+_RT-_PC-",1,1,0,1,2,1.0965593220339,0.154799871420222,43,59,1
"722",4050,66,1,1,2,7,1,"SP_ST+_RT-_PC+",1,1,1,1,6,1.14643333333333,0.148570283615819,47,60,1
"723",4050,66,1,1,2,7,1,"WD_ST-_RT-_PC-",0,1,0,0,4,1.34612068965517,0.190735055353902,53,58,1
"724",4050,66,1,1,2,7,1,"SP_ST+_RT+_PC-",1,0,0,1,1,1.42963333333333,0.278492303954802,41,60,1
"725",4050,66,1,1,2,7,1,"SP_ST-_RT+_PC+",0,0,1,1,5,1.07213333333333,0.200439914124294,43,60,1
"726",4050,66,1,1,2,7,1,"SP_ST-_RT+_PC-",0,0,0,1,4,1.17151666666667,0.33395337259887,41,60,1
"727",4050,66,1,1,2,7,1,"WD_ST-_RT-_PC+",0,1,1,0,8,1.16854237288136,0.21225070075979,54,59,1
"728",4050,66,1,1,2,7,1,"SP_ST-_RT-_PC+",0,1,1,1,3,1.29203389830508,0.262704033313852,45,59,1
"729",4050,66,1,1,2,7,1,"SP_ST-_RT-_PC-",0,1,0,1,7,0.9986,0.166371633898305,40,60,1
"730",4050,66,1,1,2,7,1,"WD_ST+_RT+_PC+",1,0,1,0,5,1.34765,0.139544366949153,48,60,1
"731",4050,66,1,1,2,7,1,"WD_ST+_RT+_PC-",1,0,0,0,1,1.40216666666667,0.167785903954802,42,60,1
"732",4050,66,1,1,2,7,1,"WD_ST+_RT-_PC+",1,1,1,0,3,1.43181666666667,0.166815711581921,48,60,1
"733",4050,66,1,1,2,7,1,"WD_ST+_RT-_PC-",1,1,0,0,7,1.33123333333333,0.110674148022599,47,60,1
"734",4050,66,1,1,2,7,1,"WD_ST-_RT+_PC+",0,0,1,0,6,1.16266666666667,0.125401378531073,48,60,1
"735",4050,66,1,1,2,7,1,"WD_ST-_RT+_PC-",0,0,0,0,2,1.47271186440678,0.335994898305085,41,59,1
"736",4050,66,1,1,2,7,1,"SP_ST+_RT+_PC+",1,0,1,1,8,1.02353333333333,0.204049676836158,49,60,1
"737",4051,32,1,1,1,8,1,"SP_ST+_RT+_PC+",1,0,1,1,6,0.895133333333333,0.103163744632768,50,60,1
"738",4051,32,1,1,1,8,1,"SP_ST-_RT-_PC+",0,1,1,1,8,0.713816666666667,0.0347243895480226,51,60,1
"739",4051,32,1,1,1,8,1,"SP_ST-_RT+_PC+",0,0,1,1,7,0.832633333333333,0.120645863276836,53,60,1
"740",4051,32,1,1,1,8,1,"SP_ST+_RT-_PC+",1,1,1,1,3,1.0731186440678,0.252435313267095,49,59,1
"741",4051,32,1,1,1,8,1,"SP_ST+_RT+_PC-",1,0,0,1,4,0.869383333333333,0.120683528531073,54,60,1
"742",4051,32,1,1,1,8,1,"WD_ST+_RT-_PC-",1,1,0,0,5,0.9361,0.11037266779661,53,60,1
"743",4051,32,1,1,1,8,1,"SP_ST-_RT-_PC-",0,1,0,1,5,0.803983333333333,0.0325943217514124,55,60,1
"744",4051,32,1,1,1,8,1,"WD_ST+_RT+_PC+",1,0,1,0,8,0.8954,0.12088566779661,57,60,1
"745",4051,32,1,1,1,8,1,"SP_ST-_RT+_PC-",0,0,0,1,2,1.10163333333333,0.239209117514124,51,60,1
"746",4051,32,1,1,1,8,1,"WD_ST-_RT-_PC-",0,1,0,0,2,1.21170689655172,0.0832836143375681,50,58,1
"747",4051,32,1,1,1,8,1,"WD_ST-_RT+_PC+",0,0,1,0,6,0.88975,0.0685126313559322,57,60,1
"748",4051,32,1,1,1,8,1,"WD_ST-_RT+_PC-",0,0,0,0,4,0.979083333333333,0.114546925141243,54,60,1
"749",4051,32,1,1,1,8,1,"WD_ST+_RT-_PC+",1,1,1,0,3,1.00538333333333,0.146046986158192,53,60,1
"750",4051,32,1,1,1,8,1,"WD_ST-_RT-_PC+",0,1,1,0,7,0.73695,0.0665489974576271,56,60,1
"751",4052,36,1,1,1,8,1,"SP_ST+_RT+_PC-",1,0,0,1,1,1.18943333333333,0.218169097175141,56,60,1
"752",4052,36,1,1,1,8,1,"WD_ST-_RT-_PC+",0,1,1,0,7,0.613466666666667,0.0187248971751412,59,60,1
"753",4052,36,1,1,1,8,1,"SP_ST+_RT-_PC+",1,1,1,1,6,0.800383333333333,0.0659779692090395,58,60,1
"754",4052,36,1,1,1,8,1,"SP_ST+_RT+_PC+",1,0,1,1,7,0.761083333333333,0.0598694336158192,53,60,1
"755",4052,36,1,1,1,8,1,"WD_ST-_RT+_PC-",0,0,0,0,8,0.657833333333333,0.015864581920904,58,60,1
"756",4052,36,1,1,1,8,1,"WD_ST-_RT+_PC+",0,0,1,0,6,0.7114,0.0381148203389831,59,60,1
"757",4052,36,1,1,1,8,1,"WD_ST-_RT-_PC-",0,1,0,0,1,1.16571186440678,0.175735553477499,54,59,1
"758",4052,36,1,1,1,8,1,"SP_ST-_RT+_PC-",0,0,0,1,8,0.6658,0.0198023661016949,54,60,1
"759",4052,36,1,1,1,8,1,"SP_ST-_RT-_PC+",0,1,1,1,2,0.935,0.0942077627118644,54,60,1
"760",4052,36,1,1,1,8,1,"SP_ST+_RT-_PC-",1,1,0,1,3,0.91045,0.0751207940677966,51,60,1
"761",4052,36,1,1,1,8,1,"SP_ST-_RT+_PC+",0,0,1,1,4,0.774783333333333,0.0354222742937853,53,60,1
"762",4052,36,1,1,1,8,1,"WD_ST+_RT+_PC-",1,0,0,0,3,1.11766666666667,0.147298937853107,60,60,1
"763",4052,36,1,1,1,8,1,"WD_ST+_RT-_PC+",1,1,1,0,4,0.818233333333333,0.0594476056497175,59,60,1
"764",4052,36,1,1,1,8,1,"SP_ST-_RT-_PC-",0,1,0,1,5,0.7263,0.0290986881355932,51,60,1
"765",4052,36,1,1,1,8,1,"WD_ST+_RT+_PC+",1,0,1,0,2,1.11683333333333,0.195741700564972,60,60,1
"766",4052,36,1,1,1,8,1,"WD_ST+_RT-_PC-",1,1,0,0,5,0.8253,0.0590173661016949,60,60,1
"767",4053,37,1,1,1,6,1,"SP_ST+_RT+_PC+",1,0,1,1,8,0.975183333333333,0.0833481861581921,37,60,1
"768",4053,37,1,1,1,6,1,"SP_ST+_RT+_PC-",1,0,0,1,1,1.36525,0.274548936440678,41,60,1
"769",4053,37,1,1,1,6,1,"WD_ST-_RT+_PC+",0,0,1,0,6,1.16869491525424,0.291012319111631,48,59,1
"770",4053,37,1,1,1,6,1,"SP_ST+_RT-_PC-",1,1,0,1,2,0.82905,0.132898827966102,32,60,1
"771",4053,37,1,1,1,6,1,"SP_ST-_RT+_PC+",0,0,1,1,5,0.989083333333333,0.13647590819209,34,60,1
"772",4053,37,1,1,1,6,1,"WD_ST-_RT+_PC-",0,0,0,0,2,1.13808333333333,0.222253942090395,51,60,1
"773",4053,37,1,1,1,6,1,"SP_ST+_RT-_PC+",1,1,1,1,6,1.00761666666667,0.210593189548023,29,60,1
"774",4053,37,1,1,1,6,1,"SP_ST-_RT-_PC-",0,1,0,1,7,0.637816666666667,0.016866559039548,38,60,1
"775",4053,37,1,1,1,6,1,"WD_ST+_RT+_PC+",1,0,1,0,5,1.24348333333333,0.374998796327684,53,60,1
"776",4053,37,1,1,1,6,1,"SP_ST-_RT+_PC-",0,0,0,1,4,0.927166666666667,0.528448853107345,33,60,1
"777",4053,37,1,1,1,6,1,"SP_ST-_RT-_PC+",0,1,1,1,3,0.781016666666667,0.132120084463277,40,60,1
"778",4053,37,1,1,1,6,1,"WD_ST+_RT-_PC-",1,1,0,0,7,1.09753333333333,0.173023948022599,54,60,1
"779",4053,37,1,1,1,6,1,"WD_ST-_RT-_PC-",0,1,0,0,4,0.850593220338983,0.163537314436002,49,59,1
"780",4053,37,1,1,1,6,1,"WD_ST+_RT+_PC-",1,0,0,0,1,1.46945,0.618000319491525,54,60,1
"781",4053,37,1,1,1,6,1,"WD_ST+_RT-_PC+",1,1,1,0,3,1.06663333333333,0.192774541242938,52,60,1
"782",4053,37,1,1,1,6,1,"WD_ST-_RT-_PC+",0,1,1,0,8,0.685716666666667,0.0587867827683616,59,60,1
"783",4054,51,1,1,2,5,1,"WD_ST+_RT+_PC-",1,0,0,0,1,2.21958333333333,0.506424687853107,48,60,1
"784",4054,51,1,1,2,5,1,"SP_ST+_RT+_PC+",1,0,1,1,6,1.90981666666667,0.678302830225989,51,60,1
"785",4054,51,1,1,2,5,1,"WD_ST+_RT-_PC+",1,1,1,0,3,1.63140740740741,0.403937604472397,49,54,1
"786",4054,51,1,1,2,5,1,"WD_ST+_RT+_PC+",1,0,1,0,8,1.79705,0.552381472033898,59,60,1
"787",4054,51,1,1,2,5,1,"SP_ST+_RT-_PC-",1,1,0,1,1,1.90176363636364,0.230275813468013,44,55,1
"788",4054,51,1,1,2,5,1,"SP_ST-_RT+_PC+",0,0,1,1,7,1.3745,0.295603508474576,46,60,1
"789",4054,51,1,1,2,5,1,"SP_ST+_RT+_PC-",1,0,0,1,4,2.03356666666667,0.515721537853107,53,60,1
"790",4054,51,1,1,2,5,1,"SP_ST+_RT-_PC+",1,1,1,1,3,2.09796296296296,0.309183130677848,45,54,1
"791",4054,51,1,1,2,5,1,"SP_ST-_RT-_PC-",0,1,0,1,5,1.53462711864407,0.279567755113968,47,59,1
"792",4054,51,1,1,2,5,1,"WD_ST+_RT-_PC-",1,1,0,0,5,1.5281186440678,0.259406347749854,58,59,1
"793",4054,51,1,1,2,5,1,"SP_ST-_RT+_PC-",0,0,0,1,2,1.76455,0.31425201440678,43,60,1
"794",4054,51,1,1,2,5,1,"SP_ST-_RT-_PC+",0,1,1,1,8,1.34629824561404,0.259978713032581,47,57,1
"795",4054,51,1,1,2,5,1,"WD_ST-_RT-_PC+",0,1,1,0,7,1.26574576271186,0.134527399766219,54,59,1
"796",4054,51,1,1,2,5,1,"WD_ST-_RT-_PC-",0,1,0,0,2,1.41848333333333,0.0961440166666667,60,60,1
"797",4054,51,1,1,2,5,1,"WD_ST-_RT+_PC+",0,0,1,0,6,1.1945,0.157348966101695,59,60,1
"798",4054,51,1,1,2,5,1,"WD_ST-_RT+_PC-",0,0,0,0,4,1.30186666666667,0.118042253107345,58,60,1
"799",4055,71,1,1,1,4,1,"SP_ST-_RT+_PC-",0,0,0,1,4,1.26798333333333,0.12667137259887,45,60,1
"800",4055,71,1,1,1,4,1,"SP_ST-_RT-_PC+",0,1,1,1,3,1.31656666666667,0.15869041920904,42,60,1
"801",4055,71,1,1,1,4,1,"WD_ST-_RT-_PC+",0,1,1,0,8,0.962733333333333,0.0659090463276836,57,60,1
"802",4055,71,1,1,1,4,1,"SP_ST-_RT-_PC-",0,1,0,1,7,1.15473333333333,0.117233656497175,46,60,1
"803",4055,71,1,1,1,4,1,"WD_ST+_RT+_PC+",1,0,1,0,5,1.125,0.129449220338983,54,60,1
"804",4055,71,1,1,1,4,1,"SP_ST-_RT+_PC+",0,0,1,1,5,1.25171666666667,0.115864545480226,46,60,1
"805",4055,71,1,1,1,4,1,"WD_ST+_RT+_PC-",1,0,0,0,1,1.66395,0.354010658474576,53,60,1
"806",4055,71,1,1,1,4,1,"WD_ST-_RT-_PC-",0,1,0,0,4,1.16985,0.132545011016949,55,60,1
"807",4055,71,1,1,1,4,1,"SP_ST+_RT-_PC+",1,1,1,1,6,1.49258333333333,0.298700484463277,46,60,1
"808",4055,71,1,1,1,4,1,"SP_ST+_RT-_PC-",1,1,0,1,2,1.44844827586207,0.273279725347852,39,58,1
"809",4055,71,1,1,1,4,1,"WD_ST-_RT+_PC-",0,0,0,0,2,1.3134,0.101814684745763,55,60,1
"810",4055,71,1,1,1,4,1,"WD_ST+_RT-_PC+",1,1,1,0,3,1.28298305084746,0.193079603156049,54,59,1
"811",4055,71,1,1,1,4,1,"WD_ST+_RT-_PC-",1,1,0,0,7,1.35742372881356,0.27652431735827,57,59,1
"812",4055,71,1,1,1,4,1,"WD_ST-_RT+_PC+",0,0,1,0,6,1.0312,0.0904411796610169,56,60,1
"813",4055,71,1,1,1,4,1,"SP_ST+_RT+_PC+",1,0,1,1,8,1.2897,0.162340688135593,49,60,1
"814",4055,71,1,1,1,4,1,"SP_ST+_RT+_PC-",1,0,0,1,1,1.82733333333333,0.321556497175141,44,60,1
"815",4056,41,3,1,2,9,1,"SP_ST-_RT+_PC-",0,0,0,1,1,1.30621666666667,0.198862579378531,50,60,1
"816",4056,41,3,1,2,9,1,"SP_ST-_RT-_PC+",0,1,1,1,6,1.38676666666667,0.199552724293785,59,60,1
"817",4056,41,3,1,2,9,1,"SP_ST-_RT+_PC+",0,0,1,1,3,1.26006666666667,0.125863012429379,54,60,1
"818",4056,41,3,1,2,9,1,"SP_ST+_RT-_PC-",1,1,0,1,7,1.23942105263158,0.114241712406015,55,57,1
"819",4056,41,3,1,2,9,1,"WD_ST+_RT+_PC+",1,0,1,0,6,1.9907,1.19999746779661,53,60,1
"820",4056,41,3,1,2,9,1,"SP_ST+_RT+_PC+",1,0,1,1,4,1.38621666666667,0.202405460734463,57,60,1
"821",4056,41,3,1,2,9,1,"SP_ST+_RT+_PC-",1,0,0,1,2,1.68033333333333,0.564611853107345,55,60,1
"822",4056,41,3,1,2,9,1,"SP_ST-_RT-_PC-",0,1,0,1,8,1.58363793103448,0.316805849062311,49,58,1
"823",4056,41,3,1,2,9,1,"WD_ST-_RT+_PC+",0,0,1,0,4,1.54698333333333,0.375496592937853,56,60,1
"824",4056,41,3,1,2,9,1,"WD_ST+_RT+_PC-",1,0,0,0,2,1.59481666666667,0.417269067514124,55,60,1
"825",4056,41,3,1,2,9,1,"WD_ST+_RT-_PC+",1,1,1,0,3,1.46555172413793,0.147829620084694,56,58,1
"826",4056,41,3,1,2,9,1,"WD_ST+_RT-_PC-",1,1,0,0,1,1.63872881355932,0.229020166569258,56,59,1
"827",4056,41,3,1,2,9,1,"WD_ST-_RT+_PC-",0,0,0,0,7,1.46096666666667,0.251666609039548,56,60,1
"828",4056,41,3,1,2,9,1,"WD_ST-_RT-_PC-",0,1,0,0,8,1.53920689655172,0.131896447670901,55,58,1
"829",4057,54,1,1,1,8,1,"SP_ST-_RT+_PC+",0,0,1,1,7,1.26171666666667,0.109860274293785,52,60,1
"830",4057,54,1,1,1,8,1,"SP_ST+_RT-_PC-",1,1,0,1,1,1.48210526315789,0.316195953007519,44,57,1
"831",4057,54,1,1,1,8,1,"SP_ST+_RT-_PC+",1,1,1,1,3,1.63612280701754,0.300718752506266,49,57,1
"832",4057,54,1,1,1,8,1,"SP_ST-_RT-_PC-",0,1,0,1,5,1.26923728813559,0.207422908240795,49,59,1
"833",4057,54,1,1,1,8,1,"SP_ST-_RT+_PC-",0,0,0,1,2,1.38628333333333,0.28157603700565,44,60,1
"834",4057,54,1,1,1,8,1,"SP_ST+_RT+_PC-",1,0,0,1,4,1.59038333333333,0.290694782768362,59,60,1
"835",4057,54,1,1,1,8,1,"WD_ST+_RT-_PC-",1,1,0,0,5,1.62375862068966,0.169297660012099,52,58,1
"836",4057,54,1,1,1,8,1,"WD_ST-_RT+_PC-",0,0,0,0,4,1.5293,0.450323094915254,51,60,1
"837",4057,54,1,1,1,8,1,"WD_ST+_RT+_PC-",1,0,0,0,1,2.10165,0.604400977118644,51,60,1
"838",4057,54,1,1,1,8,1,"WD_ST+_RT-_PC+",1,1,1,0,3,1.612375,0.214969220454545,52,56,1
"839",4057,54,1,1,1,8,1,"WD_ST-_RT-_PC+",0,1,1,0,7,1.31526666666667,0.157022978531073,59,60,1
"840",4057,54,1,1,1,8,1,"WD_ST-_RT-_PC-",0,1,0,0,2,1.46993220338983,0.137774064289889,50,59,1
"841",4058,71,1,1,2,6,0,"SP_ST+_RT-_PC-",1,1,0,1,1,1.53827118644068,0.194669407948568,50,59,1
"842",4058,71,1,1,2,6,0,"SP_ST-_RT+_PC+",0,0,1,1,7,1.37198333333333,0.320861779378531,48,60,1
"843",4058,71,1,1,2,6,0,"SP_ST-_RT-_PC+",0,1,1,1,8,1.15996666666667,0.160764371751412,53,60,1
"844",4058,71,1,1,2,6,0,"SP_ST+_RT-_PC+",1,1,1,1,3,1.39437288135593,0.265388444769141,53,59,1
"845",4058,71,1,1,2,6,0,"SP_ST-_RT-_PC-",0,1,0,1,5,1.412,0.261932847457627,49,60,1
"846",4058,71,1,1,2,6,0,"SP_ST-_RT+_PC-",0,0,0,1,2,1.66455,0.412898963559322,50,60,1
"847",4058,71,1,1,2,6,0,"WD_ST-_RT-_PC+",0,1,1,0,7,1.29296610169492,0.221630895382817,54,59,1
"848",4058,71,1,1,2,6,0,"WD_ST-_RT-_PC-",0,1,0,0,2,1.46547368421053,0.185340610902256,49,57,1
"849",4058,71,1,1,2,6,0,"WD_ST+_RT-_PC-",1,1,0,0,5,1.59401694915254,0.256817810052601,55,59,1
"850",4058,71,1,1,2,6,0,"WD_ST+_RT+_PC+",1,0,1,0,8,1.4816,0.230883871186441,59,60,1
"851",4058,71,1,1,2,6,0,"WD_ST+_RT+_PC-",1,0,0,0,1,1.68283333333333,0.252164073446328,55,60,1
"852",4058,71,1,1,2,6,0,"WD_ST+_RT-_PC+",1,1,1,0,3,1.51433898305085,0.288162262419638,59,59,1
"853",4058,71,1,1,2,6,0,"SP_ST+_RT+_PC-",1,0,0,1,4,1.68456666666667,0.632203402259887,53,60,1
"854",4058,71,1,1,2,6,0,"WD_ST-_RT+_PC+",0,0,1,0,6,1.35221666666667,0.348727426836158,57,60,1
"855",4058,71,1,1,2,6,0,"WD_ST-_RT+_PC-",0,0,0,0,4,1.39866666666667,0.15955209039548,53,60,1
"856",4058,71,1,1,2,6,0,"SP_ST+_RT+_PC+",1,0,1,1,6,1.65945,0.517113709322034,53,60,1
"857",4059,40,1,1,1,5,1,"SP_ST+_RT-_PC-",1,1,0,1,3,1.28938983050847,0.111266448860316,52,59,1
"858",4059,40,1,1,1,5,1,"SP_ST+_RT+_PC-",1,0,0,1,1,1.4078,0.257542603389831,43,60,1
"859",4059,40,1,1,1,5,1,"WD_ST-_RT-_PC-",0,1,0,0,1,0.964224137931034,0.229264492740472,26,58,1
"860",4059,40,1,1,1,5,1,"SP_ST-_RT+_PC+",0,0,1,1,4,1.36896666666667,0.162405253107345,49,60,1
"861",4059,40,1,1,1,5,1,"SP_ST+_RT-_PC+",1,1,1,1,6,1.33834482758621,0.224111773744707,47,58,1
"862",4059,40,1,1,1,5,1,"SP_ST+_RT+_PC+",1,0,1,1,7,1.18268333333333,0.151663948870056,53,60,1
"863",4059,40,1,1,1,5,1,"SP_ST-_RT-_PC+",0,1,1,1,2,0.986568965517241,0.12202874077435,21,58,1
"864",4059,40,1,1,1,5,1,"SP_ST-_RT-_PC-",0,1,0,1,5,1.39922807017544,0.223160536340852,41,57,1
"865",4059,40,1,1,1,5,1,"WD_ST+_RT+_PC+",1,0,1,0,2,1.53771666666667,0.643150681073446,52,60,1
"866",4059,40,1,1,1,5,1,"SP_ST-_RT+_PC-",0,0,0,1,8,1.15556666666667,0.082741809039548,51,60,1
"867",4059,40,1,1,1,5,1,"WD_ST+_RT-_PC+",1,1,1,0,4,1.21866666666667,0.0617754124293785,59,60,1
"868",4059,40,1,1,1,5,1,"WD_ST+_RT-_PC-",1,1,0,0,5,1.19355,0.105163200847458,59,60,1
"869",4059,40,1,1,1,5,1,"WD_ST-_RT+_PC+",0,0,1,0,6,1.05121666666667,0.0469907149717514,55,60,1
"870",4059,40,1,1,1,5,1,"WD_ST+_RT+_PC-",1,0,0,0,3,1.30373333333333,0.45020169039548,60,60,1
"871",4059,40,1,1,1,5,1,"WD_ST-_RT-_PC+",0,1,1,0,7,1.0994,0.048876006779661,60,60,1
"872",4059,40,1,1,1,5,1,"WD_ST-_RT+_PC-",0,0,0,0,8,1.251,0.142967966101695,56,60,1
"873",4060,59,1,1,1,6,1,"WD_ST-_RT+_PC-",0,0,0,0,2,1.85556666666667,0.670829944632768,58,60,1
"874",4060,59,1,1,1,6,1,"SP_ST+_RT+_PC-",1,0,0,1,1,1.87495,0.259738963559322,37,60,1
"875",4060,59,1,1,1,6,1,"SP_ST+_RT+_PC+",1,0,1,1,8,1.49705,0.385847607627119,57,60,1
"876",4060,59,1,1,1,6,1,"WD_ST-_RT+_PC+",0,0,1,0,6,1.41056666666667,0.100267097175141,60,60,1
"877",4060,59,1,1,1,6,1,"WD_ST+_RT-_PC-",1,1,0,0,7,1.37553333333333,0.11617642259887,60,60,1
"878",4060,59,1,1,1,6,1,"WD_ST-_RT-_PC+",0,1,1,0,8,1.3899,0.117405277966102,60,60,1
"879",4060,59,1,1,1,6,1,"WD_ST-_RT-_PC-",0,1,0,0,4,1.64218644067797,0.117234119812975,59,59,1
"880",4060,59,1,1,1,6,1,"SP_ST-_RT+_PC-",0,0,0,1,4,1.4569,0.111853854237288,58,60,1
"881",4060,59,1,1,1,6,1,"SP_ST+_RT-_PC+",1,1,1,1,6,1.54261666666667,0.152542850564972,57,60,1
"882",4060,59,1,1,1,6,1,"SP_ST+_RT-_PC-",1,1,0,1,2,1.64376666666667,0.252485537853107,57,60,1
"883",4060,59,1,1,1,6,1,"SP_ST-_RT+_PC+",0,0,1,1,5,1.38036666666667,0.104403659887006,58,60,1
"884",4060,59,1,1,1,6,1,"WD_ST+_RT+_PC-",1,0,0,0,1,2.21831666666667,0.39960350819209,55,60,1
"885",4060,59,1,1,1,6,1,"SP_ST-_RT-_PC+",0,1,1,1,3,1.66596666666667,0.163252880225989,56,60,1
"886",4060,59,1,1,1,6,1,"SP_ST-_RT-_PC-",0,1,0,1,7,1.51218333333333,0.128760050564972,58,60,1
"887",4060,59,1,1,1,6,1,"WD_ST+_RT+_PC+",1,0,1,0,5,1.37085,0.234758604237288,60,60,1
"888",4060,59,1,1,1,6,1,"WD_ST+_RT-_PC+",1,1,1,0,3,1.3264406779661,0.135308250730567,58,59,1
"889",4061,56,1,1,1,6,1,"SP_ST+_RT+_PC+",1,0,1,1,4,1.31055,0.197270726271186,56,60,1
"890",4061,56,1,1,1,6,1,"WD_ST+_RT-_PC-",1,1,0,0,1,1.78557627118644,0.273067041496201,55,59,1
"891",4061,56,1,1,1,6,1,"SP_ST+_RT-_PC+",1,1,1,1,5,1.17403389830508,0.0900480333138516,52,59,1
"892",4061,56,1,1,1,6,1,"SP_ST+_RT-_PC-",1,1,0,1,7,1.13261666666667,0.0974704776836158,54,60,1
"893",4061,56,1,1,1,6,1,"WD_ST-_RT+_PC+",0,0,1,0,4,1.31003333333333,0.112608812429379,53,60,1
"894",4061,56,1,1,1,6,1,"SP_ST+_RT+_PC-",1,0,0,1,2,1.49931666666667,0.285925203107345,56,60,1
"895",4061,56,1,1,1,6,1,"SP_ST-_RT-_PC+",0,1,1,1,6,1.09288333333333,0.0731018336158192,54,60,1
"896",4061,56,1,1,1,6,1,"SP_ST-_RT-_PC-",0,1,0,1,8,1.09813333333333,0.0763201853107345,57,60,1
"897",4061,56,1,1,1,6,1,"SP_ST-_RT+_PC+",0,0,1,1,3,1.17663333333333,0.0813488124293785,49,60,1
"898",4061,56,1,1,1,6,1,"SP_ST-_RT+_PC-",0,0,0,1,1,1.36021666666667,0.173207460734463,49,60,1
"899",4061,56,1,1,1,6,1,"WD_ST+_RT-_PC+",1,1,1,0,3,1.45683050847458,0.171627625949737,58,59,1
"900",4061,56,1,1,1,6,1,"WD_ST-_RT-_PC+",0,1,1,0,5,1.13216666666667,0.0748119378531073,60,60,1
"901",4061,56,1,1,1,6,1,"WD_ST+_RT+_PC+",1,0,1,0,6,1.2837,0.142951366101695,59,60,1
"902",4061,56,1,1,1,6,1,"WD_ST+_RT+_PC-",1,0,0,0,2,2.00086666666667,0.53807642259887,58,60,1
"903",4061,56,1,1,1,6,1,"WD_ST-_RT+_PC-",0,0,0,0,7,1.35408333333333,0.136437975988701,57,60,1
"904",4061,56,1,1,1,6,1,"WD_ST-_RT-_PC-",0,1,0,0,8,1.20351666666667,0.097658559039548,59,60,1
"905",4062,42,2,1,2,6,0,"WD_ST+_RT+_PC+",1,0,1,0,2,1.3738,0.162381552542373,60,60,1
"906",4062,42,2,1,2,6,0,"SP_ST-_RT+_PC+",0,0,1,1,4,1.1739,0.0884090745762712,52,60,1
"907",4062,42,2,1,2,6,0,"SP_ST-_RT-_PC+",0,1,1,1,2,1.34021666666667,0.221759528531073,40,60,1
"908",4062,42,2,1,2,6,0,"WD_ST+_RT-_PC+",1,1,1,0,4,1.20357894736842,0.157586533834586,57,57,1
"909",4063,28,7,1,1,6,0,"SP_ST-_RT-_PC+",0,1,1,1,3,1.40963157894737,0.251643558270677,40,57,1
"910",4063,28,7,1,1,6,0,"SP_ST-_RT-_PC-",0,1,0,1,7,1.40405,0.364852760169492,50,60,1
"911",4063,28,7,1,1,6,0,"SP_ST-_RT+_PC-",0,0,0,1,4,1.14383333333333,0.120008276836158,48,60,1
"912",4063,28,7,1,1,6,0,"SP_ST+_RT-_PC-",1,1,0,1,2,1.263,0.116564071428571,45,57,1
"913",4063,28,7,1,1,6,0,"WD_ST+_RT-_PC+",1,1,1,0,3,1.51605263157895,0.259247693609023,54,57,1
"914",4063,28,7,1,1,6,0,"SP_ST+_RT+_PC+",1,0,1,1,8,1.32588333333333,0.408706477683616,52,60,1
"915",4063,28,7,1,1,6,0,"SP_ST+_RT-_PC+",1,1,1,1,6,1.26395,0.276810590677966,49,60,1
"916",4063,28,7,1,1,6,0,"WD_ST-_RT+_PC-",0,0,0,0,2,1.64891525423729,0.355502354763296,56,59,1
"917",4063,28,7,1,1,6,0,"WD_ST-_RT-_PC+",0,1,1,0,8,1.20527118644068,0.248415166569258,55,59,1
"918",4063,28,7,1,1,6,0,"WD_ST+_RT-_PC-",1,1,0,0,7,1.33143859649123,0.258349500626566,53,57,1
"919",4063,28,7,1,1,6,0,"WD_ST-_RT+_PC+",0,0,1,0,6,1.09868333333333,0.279692491242938,55,60,1
"920",4063,28,7,1,1,6,0,"WD_ST-_RT-_PC-",0,1,0,0,4,1.12295,0.198575573728814,53,60,1
"921",4064,30,3,1,2,6,0,"SP_ST-_RT+_PC+",0,0,1,1,7,0.827833333333333,0.0385087853107345,52,60,1
"922",4064,30,3,1,2,6,0,"SP_ST-_RT+_PC-",0,0,0,1,2,1.0174,0.128141905084746,41,60,1
"923",4064,30,3,1,2,6,0,"SP_ST-_RT-_PC+",0,1,1,1,8,0.768666666666667,0.0246514802259887,50,60,1
"924",4064,30,3,1,2,6,0,"SP_ST-_RT-_PC-",0,1,0,1,5,0.838,0.034292,42,60,1
"925",4064,30,3,1,2,6,0,"SP_ST+_RT-_PC-",1,1,0,1,1,1.3255,0.127718355932203,45,60,1
"926",4064,30,3,1,2,6,0,"WD_ST+_RT+_PC+",1,0,1,0,8,0.867533333333333,0.0587178802259887,58,60,1
"927",4064,30,3,1,2,6,0,"WD_ST-_RT-_PC+",0,1,1,0,7,0.7266,0.0263790915254237,59,60,1
"928",4064,30,3,1,2,6,0,"WD_ST-_RT-_PC-",0,1,0,0,2,0.955733333333333,0.0445085378531073,57,60,1
"929",4064,30,3,1,2,6,0,"SP_ST+_RT-_PC+",1,1,1,1,3,0.94545,0.0577598788135593,52,60,1
"930",4064,30,3,1,2,6,0,"WD_ST-_RT+_PC+",0,0,1,0,6,0.724216666666667,0.024792952259887,57,60,1
"931",4064,30,3,1,2,6,0,"WD_ST+_RT+_PC-",1,0,0,0,1,1.26445,0.156454353389831,59,60,1
"932",4064,30,3,1,2,6,0,"WD_ST+_RT-_PC+",1,1,1,0,3,0.919101694915254,0.0355604377556984,57,59,1
"933",4064,30,3,1,2,6,0,"WD_ST+_RT-_PC-",1,1,0,0,5,0.888133333333333,0.0453433378531073,60,60,1
"934",4064,30,3,1,2,6,0,"WD_ST-_RT+_PC-",0,0,0,0,4,0.81975,0.0190039533898305,58,60,1
"935",4064,30,3,1,2,6,0,"SP_ST+_RT+_PC+",1,0,1,1,6,0.934733333333333,0.075340402259887,54,60,1
"936",4064,30,3,1,2,6,0,"SP_ST+_RT+_PC-",1,0,0,1,4,0.9144,0.0522772610169491,43,60,1
"937",4066,24,4,1,1,4,0,"SP_ST-_RT+_PC+",0,0,1,1,4,0.954433333333333,0.0389017412429379,52,60,1
"938",4066,24,4,1,1,4,0,"SP_ST+_RT-_PC+",1,1,1,1,6,0.979016666666667,0.0764697793785311,48,60,1
"939",4066,24,4,1,1,4,0,"SP_ST+_RT+_PC-",1,0,0,1,1,1.21491666666667,0.189520518361582,45,60,1
"940",4066,24,4,1,1,4,0,"SP_ST-_RT-_PC-",0,1,0,1,5,0.883466666666667,0.0591449649717514,41,60,1
"941",4066,24,4,1,1,4,0,"SP_ST-_RT+_PC-",0,0,0,1,8,0.773933333333333,0.0329920293785311,36,60,1
"942",4066,24,4,1,1,4,0,"SP_ST+_RT+_PC+",1,0,1,1,7,0.9476,0.0532257694915254,51,60,1
"943",4066,24,4,1,1,4,0,"SP_ST-_RT-_PC+",0,1,1,1,2,0.880116666666667,0.0443604437853107,47,60,1
"944",4066,24,4,1,1,4,0,"WD_ST-_RT+_PC+",0,0,1,0,6,0.919189655172414,0.0640781212946158,53,58,1
"945",4066,24,4,1,1,4,0,"WD_ST+_RT+_PC+",1,0,1,0,2,0.990733333333333,0.110560334463277,56,60,1
"946",4066,24,4,1,1,4,0,"WD_ST+_RT-_PC+",1,1,1,0,4,1.188025,0.232935050641026,36,40,1
"947",4066,24,4,1,1,4,0,"WD_ST+_RT-_PC-",1,1,0,0,5,1.1593,0.145224416949153,57,60,1
"948",4066,24,4,1,1,4,0,"WD_ST-_RT+_PC-",0,0,0,0,8,1.05406666666667,0.233741148022599,49,60,1
"949",4066,24,4,1,1,4,0,"WD_ST-_RT-_PC+",0,1,1,0,7,0.7728,0.0240994508474576,56,60,1
"950",4066,24,4,1,1,4,0,"WD_ST-_RT-_PC-",0,1,0,0,1,1.19891666666667,0.108509060734463,57,60,1
"951",4067,32,1,2,2,6,1,"SP_ST+_RT-_PC+",1,1,1,1,5,0.96595,0.0598855398305085,41,60,1
"952",4067,32,1,2,2,6,1,"WD_ST-_RT-_PC-",0,1,0,0,8,0.816933333333333,0.0394399615819209,56,60,1
"953",4067,32,1,2,2,6,1,"WD_ST-_RT-_PC+",0,1,1,0,5,0.8588,0.037119586440678,54,60,1
"954",4067,32,1,2,2,6,1,"SP_ST+_RT-_PC-",1,1,0,1,7,1.05306779661017,0.189377650496786,50,59,1
"955",4067,32,1,2,2,6,1,"SP_ST+_RT+_PC-",1,0,0,1,2,1.0515,0.155949915254237,45,60,1
"956",4067,32,1,2,2,6,1,"SP_ST+_RT+_PC+",1,0,1,1,4,0.94205,0.0344516754237288,43,60,1
"957",4067,32,1,2,2,6,1,"SP_ST-_RT+_PC+",0,0,1,1,3,0.92155,0.0523223872881356,44,60,1
"958",4067,32,1,2,2,6,1,"SP_ST-_RT-_PC+",0,1,1,1,6,0.766266666666667,0.0263160971751412,50,60,1
"959",4067,32,1,2,2,6,1,"SP_ST-_RT-_PC-",0,1,0,1,8,0.692133333333333,0.0202661853107345,42,60,1
"960",4067,32,1,2,2,6,1,"WD_ST+_RT+_PC+",1,0,1,0,6,1.15311666666667,0.240700138700565,55,60,1
"961",4067,32,1,2,2,6,1,"WD_ST+_RT+_PC-",1,0,0,0,2,1.26138333333333,0.554891799717514,56,60,1
"962",4067,32,1,2,2,6,1,"WD_ST+_RT-_PC+",1,1,1,0,3,1.08086666666667,0.0663701853107345,48,60,1
"963",4067,32,1,2,2,6,1,"WD_ST+_RT-_PC-",1,1,0,0,1,1.21603389830508,0.0749711022793688,46,59,1
"964",4067,32,1,2,2,6,1,"WD_ST-_RT+_PC+",0,0,1,0,4,0.786183333333333,0.0191920844632768,53,60,1
"965",4067,32,1,2,2,6,1,"WD_ST-_RT+_PC-",0,0,0,0,7,0.838366666666667,0.0317584734463277,58,60,1
"966",4068,31,1,2,2,6,0,"WD_ST-_RT-_PC-",0,1,0,0,2,1.22616666666667,0.14317295480226,59,60,1
"967",4068,31,1,2,2,6,0,"SP_ST+_RT+_PC-",1,0,0,1,4,1.12765,0.207343519491525,54,60,1
"968",4068,31,1,2,2,6,0,"SP_ST+_RT-_PC+",1,1,1,1,3,1.0071,0.130317311864407,55,60,1
"969",4068,31,1,2,2,6,0,"SP_ST+_RT+_PC+",1,0,1,1,6,0.895483333333333,0.0888983556497175,59,60,1
"970",4068,31,1,2,2,6,0,"SP_ST-_RT+_PC+",0,0,1,1,7,0.806766666666667,0.038596215819209,55,60,1
"971",4068,31,1,2,2,6,0,"SP_ST-_RT+_PC-",0,0,0,1,2,1.23038983050847,0.665519966101695,57,59,1
"972",4068,31,1,2,2,6,0,"SP_ST-_RT-_PC+",0,1,1,1,8,0.759416666666667,0.0250119759887006,56,60,1
"973",4068,31,1,2,2,6,0,"SP_ST-_RT-_PC-",0,1,0,1,5,0.921762711864407,0.0842345978959673,46,59,1
"974",4068,31,1,2,2,6,0,"WD_ST+_RT+_PC+",1,0,1,0,8,1.0091,0.0943284305084746,60,60,1
"975",4068,31,1,2,2,6,0,"WD_ST+_RT-_PC+",1,1,1,0,3,0.931983333333333,0.0841057115819209,60,60,1
"976",4068,31,1,2,2,6,0,"WD_ST+_RT-_PC-",1,1,0,0,5,0.914633333333333,0.177596710734463,54,60,1
"977",4068,31,1,2,2,6,0,"WD_ST-_RT+_PC+",0,0,1,0,6,0.793283333333333,0.0774443081920904,60,60,1
"978",4068,31,1,2,2,6,0,"WD_ST-_RT+_PC-",0,0,0,0,4,0.793283333333333,0.0327153929378531,60,60,1
"979",4068,31,1,2,2,6,0,"WD_ST-_RT-_PC+",0,1,1,0,7,0.739283333333333,0.0161076980225989,59,60,1
"980",4070,50,2,1,2,6,0,"WD_ST-_RT-_PC+",0,1,1,0,7,1.08676666666667,0.0802639107344633,58,60,1
"981",4070,50,2,1,2,6,0,"SP_ST+_RT-_PC+",1,1,1,1,3,1.60916949152542,0.209837212156634,51,59,1
"982",4070,50,2,1,2,6,0,"SP_ST+_RT+_PC-",1,0,0,1,4,1.35356666666667,0.313538893785311,49,60,1
"983",4070,50,2,1,2,6,0,"SP_ST+_RT+_PC+",1,0,1,1,6,1.19446666666667,0.17462435480226,50,60,1
"984",4070,50,2,1,2,6,0,"WD_ST-_RT+_PC-",0,0,0,0,4,1.18406666666667,0.0605746395480226,59,60,1
"985",4070,50,2,1,2,6,0,"SP_ST-_RT+_PC-",0,0,0,1,2,1.35458333333333,0.216645467514124,50,60,1
"986",4070,50,2,1,2,6,0,"WD_ST-_RT-_PC-",0,1,0,0,2,1.35930508474576,0.114383146697838,58,59,1
"987",4070,50,2,1,2,6,0,"SP_ST+_RT-_PC-",1,1,0,1,1,1.59143333333333,0.229102859887006,50,60,1
"988",4070,50,2,1,2,6,0,"SP_ST-_RT+_PC+",0,0,1,1,7,1.1857,0.11161726440678,55,60,1
"989",4070,50,2,1,2,6,0,"WD_ST+_RT+_PC-",1,0,0,0,1,1.63006666666667,0.253100164971751,55,60,1
"990",4070,50,2,1,2,6,0,"SP_ST-_RT-_PC+",0,1,1,1,8,1.07661666666667,0.0826839014124294,51,60,1
"991",4070,50,2,1,2,6,0,"SP_ST-_RT-_PC-",0,1,0,1,5,1.26805,0.19739401440678,51,60,1
"992",4070,50,2,1,2,6,0,"WD_ST+_RT+_PC+",1,0,1,0,8,1.35493333333333,0.259487317514124,57,60,1
"993",4070,50,2,1,2,6,0,"WD_ST+_RT-_PC+",1,1,1,0,3,1.29883050847458,0.176673522501461,56,59,1
"994",4070,50,2,1,2,6,0,"WD_ST+_RT-_PC-",1,1,0,0,5,1.44493103448276,0.244291258318209,52,58,1
"995",4070,50,2,1,2,6,0,"WD_ST-_RT+_PC+",0,0,1,0,6,1.13983333333333,0.0797043107344633,60,60,1
